// General information: 
//  MT Manager version: 2022.2.0 
//  XDA version: 2022.2.0 build 7381 rev 124627 built on 2023-07-19
// Device information: 
//  DeviceId: 00B4D4C4
//  ProductCode: MTW2-3A7G6
//  Firmware Version: 4.6.0
//  Hardware Version: 2.0.0
// Device settings: 
//  Filter Profile: human(46.1)
//  Option Flags: Orientation Smoother Disabled, Position/Velocity Smoother Disabled, Continuous Zero Rotation Update Disabled, AHS Disabled, ICC Disabled
// Coordinate system: ENU
PacketCounter	SampleTimeFine	Year	Month	Day	Second	UTC_Nano	UTC_Year	UTC_Month	UTC_Day	UTC_Hour	UTC_Minute	UTC_Second	UTC_Valid	Acc_X	Acc_Y	Acc_Z	Mat[1][1]	Mat[2][1]	Mat[3][1]	Mat[1][2]	Mat[2][2]	Mat[3][2]	Mat[1][3]	Mat[2][3]	Mat[3][3]	Latitude	Longitude	Altitude	Vel_E	Vel_N	Vel_U
04221														1.231942	9.746631	-0.448487	0.999926	-0.008552	0.008709	0.008710	0.999796	-0.018237	-0.008551	0.018312	0.999796						
04222														1.230899	9.868416	-0.441559	0.999940	-0.006814	0.008525	0.006973	0.999801	-0.018690	-0.008396	0.018748	0.999789						
04223														1.245505	9.694372	-0.381627	0.999946	-0.006026	0.008458	0.006191	0.999788	-0.019658	-0.008337	0.019709	0.999771						
04224														1.207798	9.741951	-0.409138	0.999951	-0.005414	0.008304	0.005574	0.999795	-0.019480	-0.008197	0.019526	0.999776						
04225														1.129310	9.704023	-0.346167	0.999954	-0.004899	0.008208	0.005065	0.999780	-0.020337	-0.008107	0.020378	0.999759						
04226														1.170968	9.660321	-0.343219	0.999954	-0.004929	0.008230	0.005098	0.999775	-0.020577	-0.008127	0.020618	0.999754						
04227														1.188176	9.727847	-0.293538	0.999956	-0.004906	0.008025	0.005072	0.999771	-0.020780	-0.007921	0.020820	0.999752						
04228														1.132274	9.736401	-0.239380	0.999955	-0.005380	0.007784	0.005541	0.999768	-0.020805	-0.007671	0.020847	0.999753						
04229														1.186442	9.684037	-0.235227	0.999955	-0.005635	0.007617	0.005797	0.999753	-0.021442	-0.007494	0.021485	0.999741						
04230														1.194400	9.656847	-0.141108	0.999957	-0.005750	0.007305	0.005909	0.999744	-0.021859	-0.007177	0.021901	0.999734						
04231														1.229695	9.790665	-0.208108	0.999955	-0.006534	0.006920	0.006681	0.999750	-0.021360	-0.006779	0.021405	0.999748						
04232														1.173190	9.910063	-0.272398	0.999950	-0.007566	0.006526	0.007703	0.999744	-0.021261	-0.006364	0.021311	0.999753						
04233														1.209652	9.660994	-0.226166	0.999947	-0.008101	0.006279	0.008239	0.999717	-0.022297	-0.006097	0.022347	0.999732						
04234														1.287893	9.531445	-0.291941	0.999942	-0.008797	0.006215	0.008937	0.999700	-0.022817	-0.006013	0.022871	0.999720						
04235														1.199859	9.727697	-0.345364	0.999935	-0.009662	0.006035	0.009802	0.999676	-0.023504	-0.005806	0.023561	0.999706						
04236														1.214152	9.781253	-0.373793	0.999925	-0.010646	0.006000	0.010790	0.999644	-0.024399	-0.005738	0.024462	0.999684						
04237														1.252452	9.739644	-0.339654	0.999919	-0.011067	0.006286	0.011224	0.999612	-0.025479	-0.006001	0.025548	0.999656						
04238														1.290649	9.703534	-0.315227	0.999916	-0.011202	0.006513	0.011368	0.999598	-0.025979	-0.006220	0.026051	0.999641						
04239														1.281178	9.734454	-0.322133	0.999918	-0.011008	0.006591	0.011178	0.999591	-0.026317	-0.006298	0.026388	0.999632						
04240														1.250845	9.724749	-0.297287	0.999917	-0.011054	0.006593	0.011223	0.999593	-0.026234	-0.006300	0.026306	0.999634						
04241														1.224400	9.684841	-0.285941	0.999916	-0.011173	0.006627	0.011342	0.999595	-0.026083	-0.006333	0.026156	0.999638						
04242														1.194248	9.636825	-0.367903	0.999920	-0.010775	0.006688	0.010944	0.999611	-0.025669	-0.006409	0.025740	0.999648						
04243														1.235139	9.693932	-0.298321	0.999926	-0.010058	0.006832	0.010227	0.999630	-0.025193	-0.006576	0.025261	0.999659						
04244														1.223475	9.732653	-0.260253	0.999930	-0.009731	0.006796	0.009894	0.999654	-0.024362	-0.006557	0.024427	0.999680						
04245														1.180158	9.730758	-0.257785	0.999934	-0.009380	0.006635	0.009539	0.999658	-0.024341	-0.006404	0.024403	0.999682						
04246														1.132784	9.722990	-0.281908	0.999935	-0.009369	0.006539	0.009523	0.999669	-0.023892	-0.006313	0.023952	0.999693						
04247														1.192168	9.741603	-0.368078	0.999931	-0.009707	0.006679	0.009861	0.999678	-0.023397	-0.006450	0.023461	0.999704						
04248														1.152658	9.793457	-0.458505	0.999932	-0.009575	0.006703	0.009730	0.999675	-0.023570	-0.006475	0.023633	0.999700						
04249														1.086102	9.674971	-0.308303	0.999927	-0.010076	0.006688	0.010237	0.999648	-0.024475	-0.006439	0.024541	0.999678						
04250														1.169092	9.667837	-0.322565	0.999919	-0.010721	0.006834	0.010885	0.999641	-0.024496	-0.006569	0.024569	0.999677						
04251														1.215127	9.767548	-0.326311	0.999914	-0.011035	0.007024	0.011207	0.999626	-0.024926	-0.006747	0.025003	0.999665						
04252														1.244376	9.711186	-0.269788	0.999914	-0.011008	0.007073	0.011184	0.999616	-0.025366	-0.006791	0.025443	0.999653						
04253														1.221859	9.677243	-0.228843	0.999916	-0.010796	0.007130	0.010971	0.999629	-0.024937	-0.006858	0.025013	0.999664						
04254														1.196924	9.740197	-0.243914	0.999919	-0.010586	0.007119	0.010756	0.999650	-0.024170	-0.006861	0.024245	0.999683						
04255														1.178100	9.676054	-0.218275	0.999920	-0.010388	0.007153	0.010558	0.999654	-0.024072	-0.006900	0.024145	0.999685						
04256														1.224419	9.658912	-0.254884	0.999930	-0.009380	0.007278	0.009546	0.999685	-0.023203	-0.007058	0.023270	0.999704						
04257														1.191656	9.782141	-0.250599	0.999937	-0.008486	0.007288	0.008647	0.999712	-0.022384	-0.007096	0.022445	0.999723						
04258														1.116125	9.787019	-0.264077	0.999941	-0.008119	0.007266	0.008277	0.999724	-0.022004	-0.007085	0.022063	0.999731						
04259														1.144786	9.779809	-0.289219	0.999947	-0.007370	0.007220	0.007525	0.999736	-0.021692	-0.007058	0.021745	0.999739						
04260														1.183983	9.726360	-0.250556	0.999953	-0.006366	0.007269	0.006522	0.999745	-0.021639	-0.007130	0.021685	0.999739						
04261														1.149074	9.744676	-0.280084	0.999958	-0.005762	0.007185	0.005916	0.999749	-0.021607	-0.007059	0.021649	0.999741						
04262														1.081185	9.719936	-0.261101	0.999959	-0.005858	0.006973	0.006010	0.999741	-0.021957	-0.006843	0.021998	0.999735						
04263														1.074210	9.695184	-0.348226	0.999955	-0.006496	0.006927	0.006649	0.999729	-0.022316	-0.006781	0.022361	0.999727						
04264														1.106504	9.815736	-0.332840	0.999949	-0.007341	0.006872	0.007496	0.999713	-0.022765	-0.006703	0.022815	0.999717						
04265														1.187158	9.712956	-0.278569	0.999940	-0.008681	0.006739	0.008841	0.999671	-0.024061	-0.006528	0.024119	0.999688						
04266														1.272321	9.645453	-0.346562	0.999932	-0.009544	0.006702	0.009705	0.999653	-0.024489	-0.006466	0.024552	0.999678						
04267														1.210600	9.817093	-0.290208	0.999932	-0.009696	0.006534	0.009855	0.999645	-0.024772	-0.006292	0.024835	0.999672						
04268														1.160325	9.753440	-0.277332	0.999930	-0.010047	0.006278	0.010201	0.999633	-0.025092	-0.006023	0.025154	0.999665						
04269														1.157773	9.650681	-0.253251	0.999929	-0.010179	0.006193	0.010332	0.999630	-0.025171	-0.005935	0.025234	0.999664						
04270														1.168745	9.678408	-0.392458	0.999929	-0.010268	0.006110	0.010420	0.999624	-0.025366	-0.005847	0.025428	0.999660						
04271														1.169727	9.715780	-0.300183	0.999928	-0.010441	0.005900	0.010589	0.999614	-0.025689	-0.005630	0.025750	0.999653						
04272														1.224735	9.755733	-0.289282	0.999928	-0.010602	0.005565	0.010742	0.999609	-0.025814	-0.005289	0.025872	0.999651						
04273														1.141825	9.748351	-0.366773	0.999923	-0.011281	0.005262	0.011414	0.999601	-0.025845	-0.004968	0.025903	0.999652						
04274														1.083787	9.773163	-0.348847	0.999911	-0.012359	0.005027	0.012486	0.999578	-0.026234	-0.004701	0.026295	0.999643						
04275														1.181294	9.747880	-0.280742	0.999896	-0.013548	0.005037	0.013678	0.999550	-0.026707	-0.004673	0.026774	0.999631						
04276														1.279400	9.692211	-0.259265	0.999881	-0.014540	0.005057	0.014673	0.999521	-0.027260	-0.004658	0.027331	0.999616						
04277														1.275569	9.647550	-0.237717	0.999865	-0.015621	0.005043	0.015755	0.999493	-0.027667	-0.004608	0.027742	0.999604						
04278														1.214787	9.688352	-0.295241	0.999843	-0.016911	0.005208	0.017046	0.999486	-0.027137	-0.004746	0.027221	0.999618						
04279														1.265455	9.734413	-0.319042	0.999829	-0.017663	0.005411	0.017805	0.999469	-0.027271	-0.004927	0.027363	0.999613						
04280														1.306496	9.737809	-0.296057	0.999830	-0.017572	0.005640	0.017720	0.999467	-0.027400	-0.005156	0.027496	0.999609						
04281														1.278905	9.752119	-0.416466	0.999837	-0.017108	0.005751	0.017257	0.999487	-0.026992	-0.005286	0.027087	0.999619						
04282														1.204450	9.758928	-0.363881	0.999848	-0.016444	0.005878	0.016596	0.999505	-0.026741	-0.005435	0.026835	0.999625						
04283														1.191032	9.666294	-0.286542	0.999861	-0.015518	0.006144	0.015673	0.999537	-0.026067	-0.005737	0.026159	0.999641						
04284														1.191608	9.677366	-0.308325	0.999874	-0.014541	0.006338	0.014697	0.999571	-0.025320	-0.005967	0.025410	0.999659						
04285														1.161308	9.748153	-0.301725	0.999886	-0.013674	0.006395	0.013832	0.999582	-0.025369	-0.006046	0.025454	0.999658						
04286														1.188821	9.772238	-0.263085	0.999896	-0.012870	0.006443	0.013029	0.999597	-0.025205	-0.006116	0.025287	0.999662						
04287														1.192792	9.747728	-0.282592	0.999908	-0.011969	0.006442	0.012128	0.999611	-0.025098	-0.006139	0.025174	0.999664						
04288														1.157103	9.678764	-0.341076	0.999921	-0.010912	0.006267	0.011066	0.999624	-0.025076	-0.005991	0.025143	0.999666						
04289														1.101445	9.728050	-0.268589	0.999934	-0.009778	0.006064	0.009930	0.999625	-0.025503	-0.005812	0.025562	0.999656						
04290														1.049215	9.745929	-0.255849	0.999934	-0.009709	0.006135	0.009864	0.999621	-0.025696	-0.005883	0.025755	0.999651						
04291														1.135217	9.737545	-0.283600	0.999935	-0.009603	0.006206	0.009763	0.999609	-0.026187	-0.005953	0.026246	0.999638						
04292														1.111491	9.743450	-0.270643	0.999932	-0.009804	0.006338	0.009969	0.999599	-0.026504	-0.006076	0.026565	0.999629						
04293														1.128959	9.739346	-0.284062	0.999926	-0.010374	0.006417	0.010543	0.999581	-0.026944	-0.006135	0.027010	0.999616						
04294														1.150900	9.745957	-0.290497	0.999921	-0.010778	0.006464	0.010950	0.999570	-0.027198	-0.006169	0.027267	0.999609						
04295														1.160355	9.732198	-0.299069	0.999916	-0.011192	0.006558	0.011368	0.999559	-0.027425	-0.006248	0.027498	0.999602						
04296														1.135114	9.686676	-0.275132	0.999911	-0.011641	0.006581	0.011821	0.999536	-0.028073	-0.006251	0.028149	0.999584						
04297														1.120232	9.678182	-0.286132	0.999904	-0.012259	0.006389	0.012436	0.999518	-0.028451	-0.006037	0.028528	0.999575						
04298														1.139506	9.742487	-0.309827	0.999896	-0.013024	0.006175	0.013198	0.999492	-0.029002	-0.005795	0.029080	0.999560						
04299														1.150436	9.768973	-0.308251	0.999894	-0.013188	0.006119	0.013366	0.999460	-0.030011	-0.005720	0.030089	0.999531						
04300														1.159684	9.738941	-0.274209	0.999891	-0.013475	0.006109	0.013656	0.999435	-0.030698	-0.005692	0.030778	0.999510						
04301														1.182780	9.727398	-0.302963	0.999884	-0.013968	0.006119	0.014155	0.999401	-0.031580	-0.005674	0.031663	0.999482						
04302														1.185881	9.694140	-0.219778	0.999880	-0.014201	0.006223	0.014397	0.999365	-0.032606	-0.005756	0.032691	0.999449						
04303														1.148007	9.708936	-0.206204	0.999880	-0.014140	0.006294	0.014342	0.999346	-0.033209	-0.005820	0.033295	0.999429						
04304														1.147778	9.742420	-0.272364	0.999878	-0.014307	0.006332	0.014514	0.999319	-0.033932	-0.005842	0.034019	0.999404						
04305														1.200698	9.726162	-0.210973	0.999874	-0.014497	0.006439	0.014712	0.999293	-0.034599	-0.005933	0.034689	0.999381						
04306														1.199736	9.714731	-0.222505	0.999876	-0.014393	0.006410	0.014613	0.999255	-0.035708	-0.005891	0.035798	0.999342						
04307														1.199623	9.719505	-0.282045	0.999881	-0.014074	0.006267	0.014296	0.999220	-0.036809	-0.005744	0.036895	0.999303						
04308														1.154865	9.811346	-0.240526	0.999888	-0.013685	0.006124	0.013911	0.999163	-0.038460	-0.005592	0.038541	0.999241						
04309														1.119329	9.785416	-0.203039	0.999890	-0.013494	0.006164	0.013728	0.999116	-0.039740	-0.005622	0.039820	0.999191						
04310														1.131144	9.702571	-0.167046	0.999891	-0.013379	0.006287	0.013628	0.999052	-0.041337	-0.005728	0.041419	0.999125						
04311														1.194460	9.694851	-0.118697	0.999889	-0.013457	0.006335	0.013714	0.999004	-0.042462	-0.005757	0.042544	0.999078						
04312														1.180432	9.652105	-0.100003	0.999887	-0.013642	0.006354	0.013907	0.998946	-0.043742	-0.005751	0.043826	0.999023						
04313														1.158862	9.732190	-0.098122	0.999884	-0.013904	0.006229	0.014168	0.998904	-0.044601	-0.005602	0.044684	0.998985						
04314														1.169774	9.718040	-0.114876	0.999880	-0.014212	0.006213	0.014480	0.998866	-0.045354	-0.005562	0.045438	0.998952						
04315														1.188096	9.661888	-0.129238	0.999875	-0.014491	0.006275	0.014764	0.998834	-0.045961	-0.005602	0.046048	0.998924						
04316														1.169667	9.764373	-0.140690	0.999871	-0.014829	0.006208	0.015101	0.998813	-0.046317	-0.005514	0.046405	0.998907						
04317														1.187889	9.748782	-0.137142	0.999868	-0.015013	0.006161	0.015287	0.998774	-0.047074	-0.005447	0.047162	0.998872						
04318														1.210877	9.680671	-0.037181	0.999866	-0.015191	0.006118	0.015465	0.998747	-0.047595	-0.005388	0.047683	0.998848						
04319														1.211632	9.651566	-0.028274	0.999871	-0.014974	0.005870	0.015241	0.998712	-0.048400	-0.005138	0.048483	0.998811						
04320														1.213586	9.708787	-0.004453	0.999875	-0.014849	0.005452	0.015096	0.998713	-0.048428	-0.004726	0.048505	0.998812						
04321														1.204888	9.716508	0.065598	0.999863	-0.015769	0.004998	0.015993	0.998696	-0.048477	-0.004227	0.048550	0.998812						
04322														1.210591	9.761103	0.034862	0.999845	-0.016958	0.004781	0.017168	0.998702	-0.047950	-0.003961	0.048025	0.998838						
04323														1.401285	9.689492	0.095923	0.999825	-0.018092	0.004698	0.018296	0.998698	-0.047626	-0.003830	0.047704	0.998854						
04324														1.497505	9.724985	0.004999	0.999833	-0.017794	0.004198	0.017972	0.998728	-0.047119	-0.003354	0.047186	0.998880						
04325														1.566446	9.761572	0.094943	0.999859	-0.016496	0.003205	0.016629	0.998752	-0.047086	-0.002424	0.047133	0.998886						
04326														1.609533	9.688068	0.116054	0.999879	-0.015296	0.002744	0.015407	0.998786	-0.046797	-0.002025	0.046834	0.998901						
04327														1.459509	9.536681	0.102732	0.999887	-0.014779	0.002816	0.014893	0.998829	-0.046036	-0.002132	0.046073	0.998936						
04328														1.459394	9.617623	0.082436	0.999908	-0.013292	0.002665	0.013398	0.998907	-0.044775	-0.002067	0.044806	0.998994						
04329														1.652287	9.748227	0.117375	0.999934	-0.011198	0.002571	0.011298	0.999011	-0.042994	-0.002087	0.043020	0.999072						
04330														1.724128	9.626846	-0.050743	0.999960	-0.008507	0.002692	0.008612	0.999098	-0.041583	-0.002336	0.041605	0.999131						
04331														1.547298	9.572851	-0.182980	0.999989	-0.003750	0.002850	0.003865	0.999126	-0.041628	-0.002692	0.041639	0.999129						
04332														1.355323	9.934340	-0.151150	0.999992	0.002178	0.003325	-0.002041	0.999166	-0.040773	-0.003411	0.040766	0.999163						
04333														1.220818	9.751019	-0.188383	0.999967	0.007035	0.004017	-0.006865	0.999135	-0.041026	-0.004303	0.040997	0.999150						
04334														1.199873	9.343859	-0.376980	0.999932	0.011096	0.003504	-0.010946	0.999136	-0.040087	-0.003946	0.040046	0.999190						
04335														1.136412	9.465379	-0.524510	0.999873	0.015816	0.002074	-0.015725	0.999145	-0.038232	-0.002677	0.038195	0.999267						
04336														0.875793	9.833142	-0.577683	0.999770	0.021423	0.000876	-0.021377	0.999103	-0.036562	-0.001659	0.036535	0.999331						
04337														0.743828	10.379540	-0.250291	0.999692	0.024787	0.000994	-0.024732	0.998980	-0.037777	-0.001929	0.037740	0.999286						
04338														0.701117	10.426112	0.762703	0.999646	0.026537	0.001843	-0.026432	0.998705	-0.043478	-0.002994	0.043414	0.999053						
04339														0.888495	9.983677	0.577154	0.999676	0.025268	0.002919	-0.025114	0.998700	-0.044348	-0.004036	0.044261	0.999012						
04340														1.203798	9.682411	0.507496	0.999707	0.024067	0.002631	-0.023933	0.998806	-0.042598	-0.003653	0.042523	0.999089						
04341														1.569319	9.518242	0.167345	0.999696	0.024625	0.000980	-0.024568	0.998935	-0.039061	-0.001941	0.039025	0.999236						
04342														1.298192	9.396940	-0.081681	0.999650	0.026436	-0.000717	-0.026445	0.999026	-0.035325	-0.000218	0.035331	0.999376						
04343														0.867013	9.275485	-0.240554	0.999634	0.027003	-0.001611	-0.027040	0.999151	-0.031071	0.000771	0.031103	0.999516						
04344														0.859399	9.160239	-0.249365	0.999636	0.026860	-0.002338	-0.026911	0.999315	-0.025416	0.001654	0.025470	0.999674						
04345														1.143316	9.323129	-0.211013	0.999658	0.025994	-0.002875	-0.026046	0.999466	-0.019745	0.002360	0.019813	0.999801						
04346														1.505324	9.630706	-0.018121	0.999665	0.025693	-0.003070	-0.025733	0.999571	-0.013995	0.002709	0.014069	0.999897						
04347														1.619732	9.778672	0.101381	0.999633	0.026880	-0.003310	-0.026911	0.999589	-0.009903	0.003043	0.009988	0.999945						
04348														1.577059	10.061489	0.115465	0.999566	0.029219	-0.003745	-0.029244	0.999550	-0.006662	0.003549	0.006769	0.999971						
04349														1.487735	10.487529	0.157987	0.999487	0.031777	-0.004114	-0.031804	0.999473	-0.006462	0.003906	0.006590	0.999971						
04350														1.362954	10.338365	0.247654	0.999381	0.035003	-0.003593	-0.035035	0.999344	-0.009208	0.003269	0.009328	0.999951						
04351														1.491523	9.871859	0.145053	0.999251	0.038639	-0.002167	-0.038665	0.999165	-0.013221	0.001654	0.013295	0.999910						
04352														1.562769	9.745065	0.152247	0.999081	0.042832	-0.001818	-0.042857	0.998931	-0.017343	0.001074	0.017405	0.999848						
04353														1.378182	9.678037	0.078550	0.998834	0.048233	-0.002021	-0.048265	0.998602	-0.021538	0.000979	0.021611	0.999766						
04354														0.902306	9.221284	0.047865	0.998514	0.054483	-0.000778	-0.054484	0.998160	-0.026626	-0.000674	0.026629	0.999645						
04355														0.600299	8.766130	-0.196620	0.998112	0.061403	0.001473	-0.061328	0.997632	-0.031121	-0.003381	0.030972	0.999515						
04356														0.322199	8.558552	-0.466035	0.997659	0.068280	0.003876	-0.068099	0.997043	-0.035602	-0.006296	0.035254	0.999359						
04357														0.054474	8.635818	-0.853348	0.997349	0.072453	0.006810	-0.072139	0.996650	-0.038542	-0.009579	0.037949	0.999234						
04358														-0.428995	9.315838	-1.404796	0.997335	0.072290	0.009858	-0.071850	0.996637	-0.039391	-0.012673	0.038578	0.999175						
04359														-0.642061	10.721935	-1.830110	0.997557	0.068927	0.011367	-0.068416	0.996836	-0.040466	-0.014120	0.039589	0.999116						
04360														0.032360	11.625217	-1.852445	0.997955	0.062973	0.010961	-0.062409	0.996999	-0.045796	-0.013812	0.045018	0.998891						
04361														0.887801	11.786691	-1.675167	0.998335	0.056978	0.009007	-0.056410	0.996936	-0.054198	-0.012067	0.053599	0.998490						
04362														0.973074	10.967869	-1.283420	0.998442	0.055471	0.006097	-0.054966	0.996420	-0.064232	-0.009638	0.063797	0.997916						
04363														0.368355	9.776651	-0.776206	0.998282	0.058510	0.003100	-0.058139	0.995743	-0.071531	-0.007272	0.071228	0.997434						
04364														-0.038043	9.392524	-0.479978	0.997955	0.063915	-0.000231	-0.063728	0.994746	-0.080118	-0.004891	0.079969	0.996785						
04365														-0.259924	9.025540	-0.230340	0.997519	0.070293	-0.003795	-0.070359	0.993791	-0.086198	-0.002287	0.086251	0.996271						
04366														-0.378887	8.558982	-0.256156	0.997226	0.074206	-0.005852	-0.074431	0.993132	-0.090273	-0.000887	0.090458	0.995900						
04367														-0.703083	8.228045	-0.315880	0.997104	0.075815	-0.006003	-0.076045	0.992812	-0.092423	-0.001047	0.092612	0.995702						
04368														-0.638144	8.352402	-0.704540	0.997299	0.073277	-0.004941	-0.073420	0.993055	-0.091928	-0.001829	0.092043	0.995753						
04369														-0.525201	8.785847	-1.258194	0.997671	0.068138	-0.003227	-0.068153	0.993657	-0.089443	-0.002888	0.089454	0.995987						
04370														-0.454744	9.414459	-1.314999	0.998107	0.061497	-0.000442	-0.061309	0.994440	-0.085613	-0.004826	0.085478	0.996328						
04371														0.222628	10.367815	0.010851	0.998488	0.054908	0.002648	-0.054484	0.994882	-0.085101	-0.007307	0.084828	0.996369						
04372														1.446390	11.723259	0.473758	0.999127	0.041547	0.004276	-0.041041	0.995606	-0.084171	-0.007754	0.083922	0.996442						
04373														1.115627	10.616894	1.081688	0.999736	0.022664	0.003837	-0.022257	0.996150	-0.084792	-0.005743	0.084684	0.996391						
04374														0.136310	9.840252	0.398606	0.999987	-0.002615	0.004362	0.002951	0.996866	-0.079051	-0.004142	0.079063	0.996861						
04375														0.601532	11.188439	0.398449	0.999561	-0.029249	0.004632	0.029511	0.996856	-0.073527	-0.002467	0.073632	0.997282						
04376														2.066337	11.883521	0.325690	0.998532	-0.054117	0.002347	0.054149	0.996089	-0.069817	0.001440	0.069842	0.997557						
04377														3.424346	10.406582	0.369715	0.997256	-0.074009	-0.001936	0.073710	0.994997	-0.067431	0.006917	0.067103	0.997722						
04378														3.490617	9.430794	0.559468	0.995942	-0.089800	-0.006001	0.089232	0.993933	-0.064300	0.011739	0.063504	0.997913						
04379														2.779021	9.759649	0.696703	0.994892	-0.100565	-0.008739	0.099846	0.993110	-0.061353	0.014849	0.060167	0.998078						
04380														1.768804	10.230734	0.450453	0.994193	-0.107158	-0.009821	0.106400	0.992569	-0.059038	0.016075	0.057650	0.998207						
04381														1.698375	10.096538	0.520868	0.993496	-0.113459	-0.009623	0.112699	0.991863	-0.059226	0.016264	0.057757	0.998198						
04382														2.497363	10.269750	0.303714	0.992570	-0.121454	-0.007311	0.120815	0.990910	-0.059170	0.014431	0.057847	0.998221						
04383														2.583748	9.747838	-0.008043	0.991717	-0.128343	-0.005012	0.127815	0.989981	-0.060015	0.012664	0.058878	0.998185						
04384														2.258890	9.241788	-0.165986	0.990982	-0.133894	-0.005247	0.133334	0.989214	-0.060643	0.013310	0.059397	0.998146						
04385														1.820732	9.685049	-0.257270	0.990071	-0.140457	-0.005661	0.139871	0.988356	-0.059911	0.014011	0.058524	0.998188						
04386														1.724149	9.700739	-0.410163	0.988808	-0.149130	-0.004401	0.148572	0.986940	-0.062263	0.013629	0.060912	0.998050						
04387														1.653791	9.122388	-0.108575	0.987614	-0.156860	-0.003791	0.156265	0.985478	-0.066436	0.014157	0.065020	0.997783						
04388														2.205513	8.399397	-0.137050	0.986274	-0.165053	-0.004543	0.164327	0.983878	-0.070577	0.016119	0.068862	0.997496						
04389														2.828666	8.163234	-0.005104	0.985318	-0.170612	-0.006342	0.169679	0.982692	-0.074339	0.018915	0.072172	0.997213						
04390														2.935776	8.265633	-0.225359	0.984872	-0.173061	-0.008825	0.171920	0.982223	-0.075383	0.021713	0.072725	0.997116						
04391														2.701780	8.266117	-0.632222	0.984987	-0.172237	-0.011600	0.170901	0.982413	-0.075213	0.024350	0.072102	0.997100						
04392														2.539842	8.195123	-0.847347	0.985097	-0.171464	-0.013570	0.170025	0.982671	-0.073815	0.025991	0.070408	0.997180						
04393														2.609602	8.675766	-0.132178	0.985938	-0.166385	-0.015569	0.164829	0.983586	-0.073412	0.027528	0.069813	0.997180						
04394														2.424870	8.786270	-0.229000	0.987390	-0.157216	-0.018531	0.155547	0.985274	-0.070995	0.029419	0.067217	0.997305						
04395														2.450339	8.229801	-0.316477	0.989045	-0.146308	-0.019592	0.144632	0.987037	-0.069572	0.029516	0.065976	0.997385						
04396														2.410042	9.009101	-0.254611	0.991018	-0.132493	-0.018151	0.130991	0.989066	-0.067747	0.026929	0.064761	0.997537						
04397														0.878704	12.783240	0.330708	0.993207	-0.115522	-0.013964	0.114368	0.991249	-0.065920	0.021457	0.063875	0.997727						
04398														1.131550	12.664789	-0.228513	0.994794	-0.101763	-0.005397	0.101172	0.992587	-0.067344	0.012210	0.066447	0.997715						
04399														1.334862	9.554088	0.013901	0.996158	-0.087558	0.001369	0.087472	0.994210	-0.062415	0.004103	0.062295	0.998049						
04400														2.098864	9.401738	0.456840	0.997514	-0.070256	0.005426	0.070450	0.995905	-0.056654	-0.001424	0.056895	0.998379						
04401														1.842762	10.036268	0.649289	0.998632	-0.051266	0.010300	0.051746	0.997221	-0.053590	-0.007524	0.054050	0.998510						
04402														0.730242	10.230628	1.158133	0.999339	-0.031500	0.018128	0.032450	0.997972	-0.054767	-0.016366	0.055319	0.998335						
04403														-0.552890	10.113575	1.246033	0.999545	-0.015089	0.026119	0.016571	0.998208	-0.057493	-0.025205	0.057899	0.998004						
04404														-0.918489	10.422691	0.608768	0.999534	-0.005438	0.030042	0.007190	0.998259	-0.058544	-0.029672	0.058732	0.997833						
04405														-0.309607	11.152716	0.022022	0.999567	-0.001557	0.029386	0.003253	0.998326	-0.057746	-0.029247	0.057817	0.997899						
04406														-0.040262	11.165153	0.039711	0.999643	0.001367	0.026672	0.000139	0.998409	-0.056395	-0.026706	0.056379	0.998052						
04407														0.085496	10.643087	-0.033550	0.999711	0.003816	0.023734	-0.002502	0.998475	-0.055151	-0.023908	0.055076	0.998196						
04408														0.182074	10.308912	0.054898	0.999742	0.006545	0.021739	-0.005338	0.998466	-0.055104	-0.022066	0.054974	0.998244						
04409														0.472920	10.041034	0.045652	0.999736	0.009920	0.020715	-0.008732	0.998355	-0.056662	-0.021243	0.056467	0.998178						
04410														0.495893	9.866722	-0.033668	0.999694	0.014616	0.019938	-0.013380	0.998062	-0.060778	-0.020788	0.060493	0.997952						
04411														0.131077	9.541237	-0.148138	0.999656	0.017993	0.019073	-0.016683	0.997630	-0.066748	-0.020229	0.066406	0.997588						
04412														-0.203309	9.618855	-0.175596	0.999642	0.019959	0.017793	-0.018629	0.997231	-0.071997	-0.019180	0.071639	0.997246						
04413														-0.075007	9.630771	-0.416732	0.999666	0.019452	0.017003	-0.018077	0.996821	-0.077595	-0.018458	0.077261	0.996840						
04414														0.226780	9.440651	-0.292120	0.999639	0.020045	0.017876	-0.018447	0.996173	-0.085440	-0.019520	0.085079	0.996183						
04415														0.519398	8.926817	-0.097611	0.999501	0.024000	0.020544	-0.021915	0.995110	-0.096312	-0.022755	0.095814	0.995139						
04416														0.122348	8.399966	0.387957	0.999362	0.027929	0.022248	-0.025502	0.994377	-0.102777	-0.024994	0.102144	0.994456						
04417														-0.257113	8.456251	-0.112519	0.999319	0.028955	0.022872	-0.026385	0.994053	-0.105649	-0.025795	0.104974	0.994140						
04418														-0.269128	8.929452	-0.310082	0.999399	0.025670	0.023278	-0.023093	0.994211	-0.104932	-0.025837	0.104331	0.994207						
04419														-0.197216	8.979334	-0.614605	0.999473	0.020832	0.024901	-0.018171	0.994546	-0.102705	-0.026904	0.102199	0.994400						
04420														-0.094865	8.814733	-0.805931	0.999526	0.014708	0.027044	-0.011956	0.994991	-0.099252	-0.028369	0.098881	0.994695						
04421														-0.060550	8.631435	-1.149116	0.999545	0.010402	0.028313	-0.007691	0.995522	-0.094218	-0.029167	0.093957	0.995149						
04422														-0.027910	8.738681	-1.196717	0.999553	0.008700	0.028605	-0.006214	0.996288	-0.085860	-0.029246	0.085644	0.995896						
04423														0.317501	9.613018	0.528638	0.999561	0.005225	0.029158	-0.002795	0.996567	-0.082738	-0.029491	0.082620	0.996145						
04424														2.081368	11.761431	2.321336	0.999632	-0.004952	0.026652	0.007122	0.996612	-0.081935	-0.026156	0.082094	0.996281						
04425														3.071633	11.910178	1.890328	0.999653	-0.017816	0.019380	0.019358	0.996401	-0.082527	-0.017840	0.082874	0.996400						
04426														0.709508	8.867693	1.163973	0.999304	-0.033553	0.016303	0.034707	0.996460	-0.076568	-0.013676	0.077081	0.996931						
04427														-0.316215	11.330555	0.104466	0.998712	-0.048893	0.013593	0.049676	0.996655	-0.064892	-0.010374	0.065483	0.997800						
04428														1.198684	11.959491	0.266935	0.997975	-0.062910	0.009445	0.063367	0.996155	-0.060495	-0.005603	0.060970	0.998124						
04429														3.089155	10.983509	1.134566	0.997195	-0.074767	0.003397	0.074837	0.995426	-0.059383	0.001058	0.059471	0.998229						
04430														4.468999	9.792735	0.852778	0.996253	-0.086450	-0.002565	0.086153	0.994567	-0.058423	0.007602	0.057983	0.998289						
04431														3.779808	9.611412	0.372001	0.996075	-0.088301	-0.006157	0.087826	0.994590	-0.055472	0.011022	0.054714	0.998441						
04432														1.747313	10.810919	0.445576	0.996389	-0.084734	-0.005302	0.084327	0.994977	-0.053948	0.009847	0.053306	0.998530						
04433														1.049746	11.013639	0.064580	0.996354	-0.085306	-0.001164	0.085123	0.994951	-0.053157	0.005693	0.052865	0.998585						
04434														1.650933	10.220556	-0.040788	0.995846	-0.091018	0.002396	0.091017	0.994441	-0.052950	0.002437	0.052948	0.998594						
04435														2.055231	9.658420	-0.048317	0.995054	-0.099284	0.003173	0.099310	0.993591	-0.053991	0.002207	0.054039	0.998536						
04436														2.413048	9.337339	-0.067350	0.994066	-0.108769	0.001637	0.108685	0.992434	-0.057122	0.004589	0.056961	0.998366						
04437														2.532376	8.749554	-0.230913	0.993257	-0.115932	0.000723	0.115759	0.991389	-0.061220	0.006381	0.060891	0.998124						
04438														2.247374	8.692695	0.052243	0.992980	-0.118266	0.001855	0.118126	0.990765	-0.066561	0.006034	0.066313	0.997781						
04439														1.679004	8.692293	0.439695	0.992964	-0.118387	0.002827	0.118278	0.990316	-0.072695	0.005807	0.072518	0.997350						
04440														1.609080	8.317518	0.245502	0.992711	-0.120506	0.001801	0.120281	0.989706	-0.077556	0.007564	0.077207	0.996986						
04441														2.067205	8.142936	-0.299360	0.992136	-0.125161	0.000074	0.124764	0.988935	-0.080255	0.009971	0.079633	0.996774						
04442														2.564238	8.303884	-0.605222	0.991663	-0.128853	-0.001142	0.128322	0.988305	-0.082382	0.011744	0.081549	0.996600						
04443														2.285108	8.929860	-0.750669	0.991464	-0.130357	-0.002476	0.129701	0.988055	-0.083218	0.013294	0.082187	0.996528						
04444														1.964970	9.282019	-1.224098	0.991346	-0.131216	-0.004038	0.130463	0.988148	-0.080886	0.014604	0.079659	0.996715						
04445														2.161166	9.537402	-1.427160	0.990864	-0.134750	-0.005625	0.133935	0.988053	-0.076235	0.015831	0.074785	0.997074						
04446														2.578283	9.270632	-1.268349	0.990297	-0.138787	-0.007106	0.137916	0.987790	-0.072456	0.017076	0.070773	0.997346						
04447														2.646412	8.686359	-1.130709	0.990168	-0.139626	-0.008454	0.138758	0.988064	-0.066903	0.017695	0.065072	0.997724						
04448														2.825987	8.297238	-1.322791	0.990097	-0.140145	-0.008268	0.139456	0.988589	-0.056953	0.016156	0.055236	0.998343						
04449														2.751121	8.579582	-0.804252	0.990637	-0.136352	-0.006829	0.135868	0.989544	-0.048401	0.013357	0.047020	0.998805						
04450														1.696482	9.437659	0.729973	0.992538	-0.121860	-0.004379	0.121542	0.991563	-0.045064	0.009834	0.044196	0.998974						
04451														0.310746	11.121449	2.261960	0.994920	-0.100635	0.002788	0.100660	0.993959	-0.043742	0.001631	0.043800	0.999039						
04452														0.956366	11.249830	1.680194	0.996346	-0.084120	0.014766	0.084654	0.995595	-0.040305	-0.011311	0.041408	0.999078						
04453														1.893656	10.224151	0.723612	0.997252	-0.069623	0.025329	0.070503	0.996872	-0.035707	-0.022763	0.037395	0.999041						
04454														2.025278	10.421906	0.306324	0.998049	-0.052196	0.034269	0.053172	0.998186	-0.028223	-0.032734	0.029990	0.999014						
04455														0.147855	11.927143	0.971545	0.998404	-0.036027	0.043491	0.037076	0.999035	-0.023546	-0.042601	0.025121	0.998776						
04456														-0.988424	12.368775	0.836957	0.998260	-0.027889	0.051951	0.029163	0.999288	-0.023933	-0.051246	0.025406	0.998363						
04457														-0.394603	11.913383	0.039184	0.998191	-0.025419	0.054486	0.026866	0.999301	-0.025982	-0.053788	0.027399	0.998176						
04458														0.516532	11.632262	-0.235755	0.998414	-0.024492	0.050691	0.026040	0.999208	-0.030095	-0.049914	0.031367	0.998261						
04459														0.895080	11.178583	-0.191293	0.998694	-0.024020	0.045098	0.025477	0.999163	-0.032014	-0.044291	0.033121	0.998469						
04460														0.787775	10.594948	-0.139430	0.998957	-0.020949	0.040567	0.022335	0.999171	-0.034028	-0.039821	0.034899	0.998597						
04461														0.660291	9.897066	-0.106837	0.999180	-0.015631	0.037351	0.017030	0.999154	-0.037436	-0.036734	0.038041	0.998601						
04462														0.408905	9.229770	-0.164071	0.999344	-0.009491	0.034944	0.010994	0.999012	-0.043064	-0.034500	0.043420	0.998461						
04463														-0.222146	8.921745	-0.061445	0.999461	-0.003882	0.032602	0.005541	0.998686	-0.050951	-0.032361	0.051104	0.998169						
04464														-0.389078	8.962952	0.179751	0.999540	-0.000085	0.030339	0.001856	0.998293	-0.058370	-0.030282	0.058400	0.997834						
04465														-0.058365	8.730059	0.194247	0.999587	0.001064	0.028705	0.000816	0.997859	-0.065395	-0.028713	0.065392	0.997446						
04466														0.372962	8.579800	0.028840	0.999590	-0.000718	0.028627	0.002785	0.997386	-0.072205	-0.028501	0.072255	0.996979						
04467														0.362106	8.787399	-0.201746	0.999529	-0.004611	0.030332	0.006938	0.997002	-0.077062	-0.029886	0.077236	0.996565						
04468														-0.039639	8.849012	-0.192438	0.999391	-0.009606	0.033551	0.012308	0.996615	-0.081285	-0.032656	0.081648	0.996126						
04469														-0.050333	8.845505	-0.193241	0.999151	-0.016477	0.037751	0.019600	0.996283	-0.083885	-0.036229	0.084554	0.995760						
04470														0.113671	9.051381	-0.304949	0.998842	-0.024002	0.041689	0.027519	0.995921	-0.085925	-0.039457	0.086973	0.995429						
04471														0.296400	9.278381	-0.643185	0.998454	-0.032145	0.045350	0.035963	0.995642	-0.086049	-0.042386	0.087547	0.995258						
04472														0.205598	9.479978	-0.865074	0.997934	-0.042126	0.048518	0.046157	0.995293	-0.085219	-0.044700	0.087283	0.995180						
04473														0.219758	9.386175	-1.156492	0.997266	-0.053856	0.050601	0.057902	0.994929	-0.082238	-0.045915	0.084944	0.995327						
04474														0.366895	8.988756	-1.154750	0.996599	-0.064137	0.051746	0.068081	0.994591	-0.078447	-0.046435	0.081703	0.995574						
04475														0.668993	9.178899	-0.662494	0.996271	-0.068645	0.052263	0.072397	0.994653	-0.073653	-0.046928	0.077162	0.995914						
04476														1.820878	10.091717	0.743792	0.996067	-0.071649	0.052118	0.075325	0.994529	-0.072371	-0.046648	0.076012	0.996015						
04477														2.987521	10.605494	0.913274	0.995908	-0.076793	0.047655	0.080171	0.994062	-0.073581	-0.041721	0.077101	0.996150						
04478														2.057213	9.595770	1.863554	0.995364	-0.087162	0.040659	0.090056	0.993047	-0.075813	-0.033769	0.079123	0.996293						
04479														-0.105950	9.682254	0.982177	0.994139	-0.101459	0.037326	0.103870	0.992152	-0.069612	-0.029970	0.073081	0.996876						
04480														-0.320122	11.190462	0.386639	0.992269	-0.118920	0.035494	0.121025	0.990544	-0.064620	-0.027473	0.068416	0.997279						
04481														1.942810	11.024279	-0.029466	0.989719	-0.139597	0.031128	0.141422	0.987661	-0.067271	-0.021353	0.070982	0.997249						
04482														3.490611	10.076699	0.379135	0.987573	-0.155419	0.023330	0.156699	0.985130	-0.070457	-0.012032	0.073238	0.997242						
04483														4.176012	9.527371	0.565037	0.986074	-0.165738	0.013739	0.166296	0.983562	-0.070364	-0.001851	0.071669	0.997427						
04484														3.551127	9.929239	0.220916	0.985998	-0.166663	0.005558	0.166643	0.983554	-0.069655	0.006142	0.069606	0.997556						
04485														2.493213	11.233585	0.245421	0.987082	-0.160198	0.002477	0.159973	0.984610	-0.070366	0.008834	0.069853	0.997518						
04486														1.983953	11.200318	0.182376	0.988074	-0.153907	0.004799	0.153842	0.985369	-0.073355	0.006561	0.073219	0.997294						
04487														2.394409	10.677408	-0.013953	0.988474	-0.151191	0.007716	0.151341	0.985613	-0.075259	0.003774	0.075559	0.997134						
04488														2.662335	9.968529	-0.023399	0.988476	-0.151185	0.007652	0.151321	0.985443	-0.077485	0.004174	0.077750	0.996964						
04489														2.361029	9.866640	0.045817	0.988113	-0.153612	0.005939	0.153604	0.985037	-0.078154	0.006155	0.078137	0.996924						
04490														1.831747	9.511560	-0.102470	0.987445	-0.157887	0.004798	0.157762	0.984233	-0.079983	0.007906	0.079735	0.996785						
04491														1.714596	8.844702	0.078138	0.986739	-0.162236	0.004990	0.162089	0.983298	-0.082782	0.008524	0.082493	0.996555						
04492														2.122155	8.352859	-0.154366	0.985701	-0.168397	0.006066	0.168305	0.982126	-0.084276	0.008234	0.084091	0.996424						
04493														2.725599	7.982028	-0.627115	0.984698	-0.174140	0.006758	0.174084	0.981105	-0.084424	0.008072	0.084309	0.996407						
04494														2.953601	8.104966	-0.781761	0.984393	-0.175883	0.005939	0.175752	0.980810	-0.084395	0.009018	0.084121	0.996415						
04495														2.473278	8.452460	-0.692060	0.984860	-0.173292	0.004516	0.173046	0.981248	-0.084901	0.010282	0.084397	0.996379						
04496														1.903649	8.326759	-0.554585	0.985577	-0.169188	0.003624	0.168858	0.981791	-0.087022	0.011165	0.086379	0.996200						
04497														1.685474	8.280599	-0.712421	0.986137	-0.165901	0.003253	0.165573	0.982518	-0.085107	0.010923	0.084466	0.996366						
04498														1.928423	8.534557	-1.184799	0.986484	-0.163841	0.002514	0.163518	0.983313	-0.079737	0.010593	0.079071	0.996813						
04499														2.136366	8.680266	-1.500426	0.986560	-0.163390	0.001911	0.163100	0.983962	-0.072227	0.009921	0.071568	0.997386						
04500														2.038181	9.108329	-1.117334	0.986894	-0.161356	0.002161	0.161160	0.984833	-0.064282	0.008244	0.063788	0.997929						
04501														1.327952	10.371435	0.319304	0.988081	-0.153876	0.004265	0.153834	0.986053	-0.063523	0.005569	0.063422	0.997971						
04502														0.818864	11.009712	1.045046	0.989621	-0.143257	0.011280	0.143685	0.987631	-0.062775	-0.002147	0.063744	0.997964						
04503														2.042920	10.273202	0.871868	0.990948	-0.132788	0.019732	0.133768	0.989090	-0.061696	-0.011325	0.063777	0.997900						
04504														2.593239	10.032673	0.593223	0.992572	-0.119244	0.024104	0.120458	0.991049	-0.057541	-0.017027	0.060017	0.998052						
04505														2.652757	10.817520	1.075543	0.994514	-0.100657	0.028450	0.102101	0.993257	-0.054923	-0.022730	0.057527	0.998085						
04506														1.748745	11.037197	1.545021	0.996286	-0.079188	0.033823	0.081027	0.995082	-0.056971	-0.029145	0.059500	0.997803						
04507														0.449459	10.334383	1.466214	0.997725	-0.055497	0.038285	0.057819	0.996371	-0.062470	-0.034679	0.064542	0.997312						
04508														-1.059524	9.765397	1.236988	0.998477	-0.035708	0.042052	0.038536	0.996909	-0.068468	-0.039477	0.069985	0.996767						
04509														-0.830362	10.498494	0.716619	0.998637	-0.026130	0.045180	0.029393	0.996889	-0.073131	-0.043129	0.074359	0.996298						
04510														0.187652	11.934906	-0.195798	0.998714	-0.022563	0.045394	0.026025	0.996677	-0.077186	-0.043502	0.078268	0.995983						
04511														0.713938	11.587091	-0.354239	0.998935	-0.019015	0.042035	0.022459	0.996293	-0.083046	-0.040300	0.083901	0.995659						
04512														0.545139	10.843212	-0.425617	0.999123	-0.015122	0.039056	0.018444	0.996111	-0.086156	-0.037601	0.086801	0.995516						
04513														0.357913	10.554649	-0.122869	0.999223	-0.009883	0.038163	0.013258	0.995925	-0.089202	-0.037126	0.089638	0.995282						
04514														0.305922	10.154451	-0.112613	0.999254	-0.004554	0.038343	0.008122	0.995594	-0.093413	-0.037749	0.093655	0.994889						
04515														0.173951	9.710526	0.022905	0.999281	0.000728	0.037906	0.002993	0.995182	-0.097996	-0.037795	0.098039	0.994465						
04516														0.147533	9.242934	0.209744	0.999294	0.005585	0.037166	-0.001746	0.994729	-0.102528	-0.037543	0.102391	0.994036						
04517														0.181353	8.919222	0.108685	0.999286	0.008941	0.036709	-0.005024	0.994412	-0.105453	-0.037447	0.105194	0.993746						
04518														0.020786	8.929356	0.099290	0.999277	0.011516	0.036245	-0.007578	0.994234	-0.106961	-0.037268	0.106609	0.993602						
04519														-0.148541	8.825326	-0.074201	0.999284	0.012086	0.035859	-0.008171	0.994185	-0.107376	-0.036948	0.107006	0.993572						
04520														-0.219238	8.662709	-0.082958	0.999340	0.008920	0.035222	-0.005092	0.994211	-0.107325	-0.035975	0.107075	0.993600						
04521														-0.034173	8.492920	-0.014550	0.999411	0.004277	0.034062	-0.000621	0.994297	-0.106646	-0.034324	0.106562	0.993713						
04522														0.227635	8.244394	-0.344802	0.999448	-0.002252	0.033142	0.005683	0.994584	-0.103777	-0.032728	0.103908	0.994048						
04523														0.079558	8.195884	-0.734312	0.999431	-0.008860	0.032538	0.012027	0.995067	-0.098473	-0.031505	0.098808	0.994608						
04524														-0.142180	8.437665	-0.674680	0.999338	-0.015806	0.032764	0.018795	0.995484	-0.093047	-0.031145	0.093601	0.995122						
04525														-0.123949	8.781513	-0.611922	0.999146	-0.023626	0.033888	0.026554	0.995703	-0.088715	-0.031646	0.089539	0.995480						
04526														0.324067	9.297271	-0.229720	0.998918	-0.030560	0.035047	0.033442	0.995835	-0.084820	-0.032309	0.085900	0.995780						
04527														1.031422	10.540314	1.064850	0.998571	-0.040241	0.035175	0.043061	0.995579	-0.083474	-0.031661	0.084870	0.995889						
04528														2.101951	11.467585	1.909751	0.998011	-0.054798	0.031178	0.057250	0.994811	-0.084101	-0.026408	0.085719	0.995969						
04529														2.265364	9.616654	1.914281	0.997051	-0.072925	0.023899	0.074652	0.993846	-0.081832	-0.017784	0.083375	0.996360						
04530														1.238958	9.285084	1.341908	0.995578	-0.092585	0.015898	0.093530	0.992730	-0.075753	-0.008769	0.076905	0.997000						
04531														1.054897	11.622583	0.791028	0.993957	-0.109548	0.006938	0.109765	0.991495	-0.069929	0.000782	0.070268	0.997528						
04532														2.507187	12.580930	0.763651	0.992448	-0.122669	-0.000354	0.122337	0.989965	-0.070736	0.009028	0.070159	0.997495						
04533														3.370328	11.026973	0.586031	0.991180	-0.132433	-0.004886	0.131732	0.988612	-0.072747	0.014465	0.071462	0.997338						
04534														3.464233	10.209664	0.355782	0.990509	-0.137136	-0.009202	0.136155	0.988161	-0.070703	0.018789	0.068779	0.997455						
04535														2.949827	10.642708	-0.073830	0.990692	-0.135576	-0.012215	0.134465	0.988632	-0.067276	0.021197	0.065007	0.997660						
04536														2.412221	11.719231	-0.059457	0.991185	-0.132000	-0.011319	0.131013	0.989289	-0.064368	0.019695	0.062318	0.997862						
04537														1.784487	10.657482	-0.206584	0.991459	-0.130155	-0.008319	0.129362	0.989518	-0.064180	0.016585	0.062555	0.997904						
04538														1.479535	9.750231	-0.140963	0.991196	-0.132258	-0.006235	0.131619	0.989344	-0.062245	0.014401	0.060877	0.998041						
04539														1.812072	9.188435	-0.248049	0.990592	-0.136742	-0.005476	0.136127	0.988673	-0.063207	0.014057	0.061867	0.997985						
04540														2.035294	9.099263	-0.106993	0.990154	-0.139871	-0.005610	0.139200	0.988055	-0.066117	0.014791	0.064685	0.997796						
04541														2.153460	8.963868	0.085929	0.989816	-0.142247	-0.005422	0.141509	0.987386	-0.071025	0.015457	0.069534	0.997460						
04542														2.187645	8.559695	0.183798	0.989608	-0.143725	-0.004466	0.142957	0.986717	-0.077156	0.015496	0.075716	0.997009						
04543														2.173974	8.208306	0.391819	0.989552	-0.144127	-0.003905	0.143317	0.986228	-0.082551	0.015749	0.081128	0.996579						
04544														2.469084	8.315057	0.158800	0.989477	-0.144631	-0.004221	0.143738	0.985875	-0.085961	0.016594	0.084450	0.996290						
04545														2.395598	8.457035	-0.325469	0.989570	-0.143948	-0.005542	0.142956	0.986036	-0.085422	0.017761	0.083738	0.996329						
04546														2.110627	8.789622	-0.752328	0.989865	-0.141817	-0.007377	0.140729	0.986576	-0.082844	0.019027	0.080967	0.996535						
04547														1.770430	9.090309	-0.665634	0.990487	-0.137303	-0.009100	0.136107	0.987294	-0.082012	0.020244	0.079993	0.996590						
04548														1.564963	8.897126	-0.765768	0.991014	-0.133293	-0.011119	0.131982	0.987980	-0.080472	0.021712	0.078282	0.996695						
04549														1.876972	8.821195	-0.875991	0.991552	-0.129051	-0.013071	0.127664	0.988767	-0.077727	0.022955	0.075401	0.996889						
04550														2.279126	8.816440	-0.989449	0.992208	-0.123732	-0.014587	0.122358	0.989797	-0.073004	0.023471	0.070651	0.997225						
04551														2.426866	8.931728	-0.669712	0.993080	-0.116452	-0.015194	0.115135	0.990916	-0.069497	0.023149	0.067267	0.997466						
04552														1.895295	9.462447	-0.102916	0.994423	-0.104507	-0.014155	0.103354	0.992434	-0.066282	0.020975	0.064450	0.997701						
04553														1.261002	10.160949	0.632526	0.995864	-0.090262	-0.010357	0.089409	0.993886	-0.064786	0.016141	0.063592	0.997845						
04554														1.275140	10.397004	0.323541	0.996922	-0.078283	-0.004188	0.077870	0.995000	-0.062538	0.009063	0.062020	0.998034						
04555														1.551541	10.137800	0.422154	0.998080	-0.061924	0.001552	0.061905	0.996271	-0.060098	0.002175	0.060078	0.998191						
04556														1.874772	10.219362	0.227317	0.999109	-0.041627	0.007019	0.041957	0.997537	-0.056217	-0.004662	0.056461	0.998394						
04557														1.617132	10.684671	0.443307	0.999680	-0.019885	0.015618	0.020689	0.998373	-0.053127	-0.014537	0.053433	0.998466						
04558														0.654738	10.696391	0.741803	0.999602	-0.001364	0.028171	0.002842	0.998618	-0.052474	-0.028061	0.052533	0.998225						
04559														-0.825628	10.878412	0.784072	0.999212	0.011612	0.037961	-0.009561	0.998508	-0.053771	-0.038529	0.053366	0.997831						
04560														-1.032969	10.941119	0.639137	0.999016	0.015882	0.041412	-0.013587	0.998387	-0.055124	-0.042220	0.054507	0.997620						
04561														-0.300187	11.491626	-0.005924	0.999116	0.012785	0.040035	-0.010554	0.998406	-0.055447	-0.040680	0.054975	0.997659						
04562														0.155815	11.526616	-0.212102	0.999299	0.009609	0.036190	-0.007509	0.998304	-0.057736	-0.036684	0.057424	0.997676						
04563														0.468155	10.928467	-0.056596	0.999418	0.008394	0.033058	-0.006392	0.998166	-0.060205	-0.033503	0.059959	0.997638						
04564														0.755833	10.219682	0.084729	0.999469	0.008826	0.031371	-0.006816	0.997950	-0.063632	-0.031868	0.063384	0.997480						
04565														0.623291	9.762748	0.079567	0.999522	0.008463	0.029724	-0.006424	0.997662	-0.068033	-0.030230	0.067810	0.997240						
04566														0.165497	9.491843	0.090922	0.999602	0.007394	0.027221	-0.005366	0.997257	-0.073820	-0.027692	0.073644	0.996900						
04567														-0.399422	9.288990	0.288794	0.999698	0.004793	0.024089	-0.002833	0.996733	-0.080720	-0.024397	0.080628	0.996446						
04568														-0.315535	9.034270	0.166813	0.999769	-0.001176	0.021467	0.003051	0.996156	-0.087545	-0.021281	0.087590	0.995929						
04569														0.027008	9.073960	0.018199	0.999766	-0.009704	0.019345	0.011496	0.995429	-0.094812	-0.018336	0.095012	0.995307						
04570														0.404357	8.950419	0.044828	0.999698	-0.017248	0.017510	0.018948	0.994590	-0.102134	-0.015654	0.102435	0.994617						
04571														0.485004	8.955179	0.030311	0.999581	-0.024050	0.016093	0.025651	0.993810	-0.108095	-0.013393	0.108463	0.994010						
04572														0.405708	8.851605	-0.080605	0.999388	-0.031419	0.015354	0.032933	0.993267	-0.111066	-0.011761	0.111503	0.993694						
04573														0.006968	8.737263	-0.203950	0.999104	-0.039520	0.015175	0.040966	0.992942	-0.111302	-0.010669	0.111824	0.993671						
04574														-0.307746	8.983835	-0.245865	0.998757	-0.047562	0.014928	0.048908	0.992843	-0.108955	-0.009639	0.109550	0.993935						
04575														-0.264394	9.020109	-0.296859	0.998277	-0.056744	0.014962	0.058008	0.992746	-0.105309	-0.008877	0.105996	0.994327						
04576														-0.388032	8.911988	-0.097290	0.997614	-0.067261	0.015559	0.068498	0.992464	-0.101600	-0.008608	0.102424	0.994704						
04577														-0.241728	8.902165	-0.445561	0.996867	-0.077421	0.016171	0.078631	0.992163	-0.097102	-0.008526	0.098070	0.995143						
04578														0.511264	9.857380	1.058516	0.996074	-0.087103	0.015772	0.088205	0.991656	-0.094012	-0.007451	0.095034	0.995446						
04579														2.000118	11.924716	1.087100	0.994885	-0.100379	0.011271	0.100990	0.990685	-0.091345	-0.001997	0.092016	0.995756						
04580														2.553480	10.878039	1.308102	0.993044	-0.117700	0.003073	0.117492	0.988915	-0.090793	0.007648	0.090522	0.995865						
04581														1.183598	9.853856	1.006301	0.990376	-0.138368	-0.003140	0.137608	0.986859	-0.084699	0.014818	0.083452	0.996402						
04582														0.545749	10.720821	0.320937	0.987663	-0.156277	-0.009949	0.155073	0.984930	-0.076585	0.021767	0.074097	0.997013						
04583														2.123231	10.951591	0.282295	0.985531	-0.168360	-0.019606	0.166484	0.983226	-0.074493	0.031819	0.070151	0.997029						
04584														3.665438	10.532047	-0.048225	0.984306	-0.174041	-0.029176	0.171551	0.982467	-0.073002	0.041370	0.066851	0.996905						
04585														3.811216	10.258283	-0.317749	0.984551	-0.171599	-0.034833	0.168875	0.983144	-0.070069	0.046269	0.063105	0.996934						
04586														2.736247	10.681600	-0.326055	0.986223	-0.161836	-0.034254	0.159407	0.985097	-0.064604	0.044199	0.058254	0.997323						
04587														1.085194	11.152215	-0.083096	0.987937	-0.152318	-0.027904	0.150328	0.986612	-0.063232	0.037162	0.058275	0.997609						
04588														0.627927	9.876955	0.120343	0.988625	-0.148854	-0.021537	0.147282	0.987151	-0.061971	0.030484	0.058094	0.997846						
04589														1.016481	8.978961	0.020559	0.988135	-0.152645	-0.017017	0.151395	0.986679	-0.059536	0.025878	0.056253	0.998081						
04590														1.517003	8.678536	-0.073097	0.986881	-0.160866	-0.013683	0.159797	0.985367	-0.059307	0.023023	0.056342	0.998146						
04591														1.684973	8.581247	0.036462	0.985489	-0.169403	-0.010686	0.168471	0.983865	-0.060235	0.020718	0.057560	0.998127						
04592														1.500004	8.599846	-0.559041	0.983484	-0.180870	-0.006779	0.180176	0.981896	-0.058449	0.017228	0.056262	0.998267						
04593														1.439536	8.531727	-0.870755	0.980813	-0.194942	-0.001855	0.194512	0.979195	-0.057809	0.013086	0.056338	0.998326						
04594														1.874899	8.513429	-0.879388	0.978100	-0.208121	0.002634	0.207904	0.976326	-0.059688	0.009851	0.058928	0.998214						
04595														2.317848	8.692410	-0.592622	0.976081	-0.217347	0.005155	0.217216	0.973952	-0.065081	0.009125	0.064644	0.997867						
04596														3.287360	9.149445	0.053855	0.974832	-0.222884	0.005024	0.222620	0.971976	-0.075520	0.011949	0.074738	0.997132						
04597														4.342935	9.088049	0.291012	0.975010	-0.222128	0.003939	0.221678	0.971557	-0.083279	0.014671	0.082071	0.996518						
04598														3.553577	8.923682	-0.154632	0.976245	-0.216626	0.004305	0.216255	0.972962	-0.081108	0.013382	0.080112	0.996696						
04599														1.825463	8.749928	-1.099216	0.977542	-0.210649	0.006241	0.210534	0.974833	-0.073324	0.009361	0.072991	0.997289						
04600														1.511984	8.963360	-2.222914	0.978269	-0.207178	0.008240	0.207284	0.976281	-0.062524	0.004909	0.062873	0.998009						
04601														1.982625	9.339016	-2.620310	0.979404	-0.201757	0.007866	0.201883	0.977888	-0.054567	0.003317	0.055031	0.998479						
04602														2.250362	10.132126	-0.563252	0.982632	-0.185515	0.004172	0.185446	0.980968	-0.057551	0.006584	0.057325	0.998334						
04603														1.777554	12.384632	1.884199	0.986991	-0.160706	0.004693	0.160718	0.985459	-0.055142	0.004237	0.055179	0.998467						
04604														1.290699	11.617197	2.151158	0.989933	-0.140859	0.013805	0.141416	0.988372	-0.055870	-0.005775	0.057260	0.998343						
04605														1.195494	8.569445	1.052687	0.991808	-0.125922	0.021469	0.126864	0.990640	-0.050379	-0.014924	0.052690	0.998499						
04606														1.560763	8.635557	0.265971	0.993922	-0.106740	0.026945	0.107880	0.993138	-0.045164	-0.021940	0.047796	0.998616						
04607														0.884045	10.989252	0.842934	0.995804	-0.084406	0.035359	0.085918	0.995344	-0.043676	-0.031508	0.046531	0.998420						
04608														-0.645023	12.025255	1.388587	0.996838	-0.065012	0.045680	0.067232	0.996540	-0.048867	-0.042345	0.051783	0.997760						
04609														-0.849222	10.952770	0.613965	0.996948	-0.058049	0.052208	0.060954	0.996575	-0.055883	-0.048785	0.058894	0.997071						
04610														0.060062	11.010990	0.138084	0.997037	-0.056715	0.051963	0.059843	0.996357	-0.060756	-0.048328	0.063685	0.996799						
04611														0.435207	11.180401	0.202568	0.997293	-0.055174	0.048606	0.058350	0.996076	-0.066537	-0.044744	0.069193	0.996599						
04612														0.493661	10.554609	0.068567	0.997633	-0.051696	0.045337	0.054854	0.995936	-0.071431	-0.041460	0.073749	0.996415						
04613														0.564129	10.120889	-0.016829	0.997995	-0.046782	0.042622	0.049943	0.995826	-0.076396	-0.038870	0.078371	0.996166						
04614														0.520221	9.746081	-0.068433	0.998358	-0.040490	0.040513	0.043744	0.995593	-0.082950	-0.036976	0.084586	0.995730						
04615														0.335400	9.471864	-0.080288	0.998650	-0.034215	0.039089	0.037667	0.995111	-0.091293	-0.035775	0.092642	0.995057						
04616														0.242545	9.077112	0.168846	0.998904	-0.028117	0.037409	0.031745	0.994459	-0.100216	-0.034384	0.101294	0.994262						
04617														0.244352	8.851202	0.254669	0.999093	-0.024472	0.034835	0.028071	0.993875	-0.106884	-0.032006	0.107765	0.993661						
04618														0.211091	8.617787	0.103638	0.999252	-0.022244	0.031646	0.025649	0.993422	-0.111605	-0.028955	0.112333	0.993249						
04619														-0.004283	8.486520	-0.222323	0.999372	-0.020620	0.028800	0.023774	0.993212	-0.113866	-0.026256	0.114479	0.993079						
04620														-0.128599	8.407972	-0.371683	0.999471	-0.018645	0.026658	0.021600	0.993100	-0.115266	-0.024325	0.115781	0.992977						
04621														-0.311722	8.499007	-0.345552	0.999588	-0.014482	0.024779	0.017261	0.993109	-0.115916	-0.022930	0.116296	0.992950						
04622														-0.501289	8.675677	0.018350	0.999649	-0.012006	0.023598	0.014665	0.993150	-0.115927	-0.022045	0.116232	0.992977						
04623														-0.703263	8.966152	0.422203	0.999575	-0.015797	0.024480	0.018523	0.993138	-0.115469	-0.022488	0.115873	0.993009						
04624														-0.576917	9.483359	0.044552	0.999354	-0.024159	0.026596	0.027023	0.993205	-0.113199	-0.023681	0.113845	0.993216						
04625														0.681709	9.788510	0.160523	0.998962	-0.035437	0.028633	0.038350	0.993347	-0.108590	-0.024594	0.109575	0.993674						
04626														2.357445	10.594848	0.461955	0.998389	-0.049465	0.027807	0.052049	0.993468	-0.101551	-0.022602	0.102835	0.994442						
04627														2.673264	10.836099	0.875380	0.997853	-0.061981	0.021143	0.063749	0.993249	-0.096912	-0.014993	0.098052	0.995068						
04628														1.471360	10.126785	1.288309	0.997172	-0.073785	0.014274	0.074775	0.993118	-0.090142	-0.007525	0.090954	0.995827						
04629														0.551197	9.981857	1.472965	0.995962	-0.089225	0.009882	0.089737	0.992556	-0.082339	-0.002462	0.082893	0.996555						
04630														0.669036	10.698383	1.086283	0.994363	-0.105965	0.003575	0.105930	0.991489	-0.075689	0.004476	0.075641	0.997125						
04631														2.300923	11.012457	0.918579	0.992584	-0.121443	-0.005352	0.120742	0.990041	-0.072386	0.014090	0.071203	0.997362						
04632														3.309006	10.487874	0.886255	0.991028	-0.132876	-0.014427	0.131535	0.988753	-0.071171	0.023721	0.068634	0.997360						
04633														3.279938	9.905871	0.387733	0.990321	-0.137272	-0.020488	0.135604	0.988430	-0.067955	0.029579	0.064519	0.997478						
04634														2.469591	10.436242	0.155156	0.990510	-0.135590	-0.022474	0.133928	0.988939	-0.063746	0.030869	0.060131	0.997713						
04635														1.812569	11.774454	-0.007734	0.991040	-0.131950	-0.020708	0.130515	0.989642	-0.059790	0.028383	0.056551	0.997996						
04636														1.596840	10.814698	-0.056852	0.991455	-0.129381	-0.016672	0.128174	0.989935	-0.059999	0.024267	0.057349	0.998059						
04637														1.714683	9.813158	-0.122780	0.991412	-0.130068	-0.013596	0.129077	0.989932	-0.058087	0.021014	0.055833	0.998219						
04638														1.747011	9.484090	-0.203363	0.991112	-0.132539	-0.011465	0.131668	0.989605	-0.057846	0.019013	0.055823	0.998260						
04639														1.577100	9.310812	-0.184880	0.990574	-0.136665	-0.009311	0.135896	0.988991	-0.058549	0.017210	0.056732	0.998241						
04640														1.588459	8.841538	0.006909	0.989844	-0.142020	-0.006252	0.141366	0.988015	-0.061990	0.014980	0.060476	0.998057						
04641														1.735275	8.461164	-0.047487	0.989148	-0.146879	-0.003664	0.146319	0.987024	-0.066145	0.013331	0.064891	0.997803						
04642														2.138381	8.050825	-0.087379	0.988313	-0.152427	-0.001867	0.151922	0.985899	-0.070160	0.012535	0.069056	0.997534						
04643														2.536725	8.004086	-0.239306	0.987483	-0.157726	-0.000108	0.157296	0.984838	-0.073159	0.011645	0.072226	0.997320						
04644														2.410722	8.252683	-0.121992	0.987061	-0.160344	0.000632	0.159941	0.984288	-0.074806	0.011373	0.073940	0.997198						
04645														2.194097	8.361901	-0.474516	0.986919	-0.161214	0.000249	0.160766	0.984059	-0.076045	0.012014	0.075090	0.997104						
04646														2.098918	8.494661	-0.577568	0.987111	-0.160030	-0.001481	0.159470	0.984353	-0.074962	0.013454	0.073760	0.997185						
04647														2.749912	8.841103	-0.980020	0.987622	-0.156779	-0.004861	0.156023	0.985103	-0.072314	0.016126	0.070661	0.997370						
04648														2.906412	9.156470	-1.747821	0.988340	-0.151964	-0.009559	0.151020	0.986340	-0.065778	0.019424	0.063568	0.997788						
04649														2.276722	9.924287	-1.455813	0.989698	-0.142441	-0.014400	0.141313	0.988063	-0.061341	0.022966	0.058674	0.998013						
04650														1.304399	10.443740	-0.771510	0.991913	-0.125847	-0.016439	0.124672	0.990416	-0.059441	0.023761	0.056911	0.998096						
04651														0.839105	12.109426	0.749241	0.994045	-0.108077	-0.013947	0.107077	0.992487	-0.059201	0.020241	0.057355	0.998149						
04652														1.110074	12.026440	1.500844	0.995674	-0.092446	-0.009285	0.091717	0.993926	-0.060819	0.014851	0.059704	0.998106						
04653														2.116494	9.815920	1.458200	0.997099	-0.076014	-0.003920	0.075649	0.995366	-0.059357	0.008414	0.058888	0.998229						
04654														2.472305	8.875687	1.066631	0.998309	-0.058057	0.003008	0.058134	0.996615	-0.058123	0.000377	0.058199	0.998305						
04655														1.346534	9.210803	0.803600	0.999179	-0.038825	0.011534	0.039448	0.997430	-0.059803	-0.009182	0.060209	0.998144						
04656														-0.896445	10.387939	0.944384	0.999591	-0.019819	0.020613	0.021102	0.997726	-0.064011	-0.019297	0.064419	0.997736						
04657														-2.459145	11.118730	0.618795	0.999521	-0.007703	0.029959	0.009765	0.997549	-0.069283	-0.029352	0.069543	0.997147						
04658														-1.813117	10.607981	0.230595	0.999289	-0.009863	0.036383	0.012508	0.997239	-0.073193	-0.035561	0.073596	0.996654						
04659														0.055817	11.234967	-0.116852	0.999062	-0.022162	0.037204	0.024904	0.996877	-0.074934	-0.035427	0.075790	0.996494						
04660														0.610791	11.056202	-0.300207	0.998731	-0.037172	0.033976	0.039705	0.996224	-0.077207	-0.030978	0.078459	0.996436						
04661														0.419853	10.577827	-0.335917	0.998356	-0.048503	0.030537	0.050802	0.995527	-0.079655	-0.026536	0.081075	0.996355						
04662														0.483436	10.580572	0.012074	0.998124	-0.054428	0.028025	0.056588	0.994932	-0.083116	-0.023359	0.084546	0.996146						
04663														1.002055	9.966891	0.064377	0.997957	-0.058403	0.025892	0.060465	0.994310	-0.087700	-0.020623	0.089087	0.995810						
04664														1.404870	9.202463	0.090655	0.997856	-0.061054	0.023586	0.062996	0.993676	-0.092952	-0.017762	0.094238	0.995391						
04665														0.956190	8.707235	0.279171	0.997925	-0.060987	0.020660	0.062721	0.993250	-0.097570	-0.014570	0.098663	0.995014						
04666														0.324823	8.492695	0.225035	0.998026	-0.060402	0.017205	0.061847	0.992872	-0.101885	-0.010928	0.102748	0.994647						
04667														-0.106025	8.429604	0.132783	0.998080	-0.060245	0.014379	0.061429	0.992533	-0.105375	-0.007923	0.106056	0.994329						
04668														-0.057010	8.205848	-0.168865	0.998070	-0.060762	0.012825	0.061796	0.992199	-0.108272	-0.006146	0.108855	0.994039						
04669														0.343030	8.086722	-0.408538	0.998087	-0.060552	0.012491	0.061557	0.992107	-0.109248	-0.005778	0.109808	0.993936						
04670														0.393753	8.198176	-0.428302	0.998224	-0.058264	0.012456	0.059273	0.992334	-0.108439	-0.006043	0.108984	0.994025						
04671														-0.074084	8.432641	-0.566005	0.998266	-0.057407	0.013046	0.058475	0.992561	-0.106784	-0.006819	0.107361	0.994197						
04672														-0.976442	8.974133	-0.449392	0.998073	-0.060041	0.015668	0.061363	0.992524	-0.105498	-0.009217	0.106257	0.994296						
04673														-1.010725	9.605816	-0.919476	0.997699	-0.064792	0.019992	0.066491	0.992641	-0.101209	-0.013287	0.102305	0.994664						
04674														0.693453	9.817813	-0.018036	0.997290	-0.069764	0.023345	0.071655	0.993036	-0.093512	-0.016659	0.094931	0.995344						
04675														3.321799	11.225640	0.645518	0.996520	-0.080404	0.022001	0.081969	0.993160	-0.083149	-0.015165	0.084662	0.996294						
04676														3.621380	10.607109	1.145773	0.995690	-0.091630	0.014315	0.092472	0.992662	-0.077916	-0.007070	0.078904	0.996857						
04677														0.893359	9.748126	1.158317	0.994629	-0.103290	0.006645	0.103503	0.992442	-0.065925	0.000215	0.066259	0.997802						
04678														-0.625827	10.667775	1.185798	0.993304	-0.115526	0.001104	0.115421	0.991893	-0.053169	0.005048	0.052940	0.998585						
04679														0.476574	12.201184	0.887630	0.991424	-0.130648	-0.003177	0.130358	0.990360	-0.046843	0.009266	0.046027	0.998897						
04680														2.735304	11.752777	0.806373	0.989374	-0.145156	-0.008292	0.144610	0.988359	-0.047269	0.015057	0.045568	0.998848						
04681														3.797016	10.210292	0.292218	0.987823	-0.154913	-0.014419	0.154095	0.986951	-0.046714	0.021468	0.043924	0.998804						
04682														4.058417	10.281790	-0.095305	0.987561	-0.156118	-0.018717	0.155220	0.986968	-0.042435	0.025098	0.039002	0.998924						
04683														2.955547	11.486522	-0.043680	0.988830	-0.147900	-0.018453	0.147071	0.988308	-0.040213	0.024185	0.037050	0.999021						
04684														1.543524	11.733258	-0.063523	0.990240	-0.138632	-0.014344	0.137980	0.989653	-0.039355	0.019651	0.036992	0.999122						
04685														1.255546	10.144211	-0.115700	0.991266	-0.131511	-0.009843	0.130999	0.990513	-0.041504	0.015208	0.039852	0.999090						
04686														1.442011	9.247785	0.052160	0.991817	-0.127448	-0.007482	0.127012	0.990962	-0.043154	0.012914	0.041850	0.999040						
04687														1.659286	8.613137	0.172211	0.991881	-0.126980	-0.006878	0.126536	0.990899	-0.045903	0.012645	0.044660	0.998922						
04688														1.828035	7.999303	-0.273501	0.991556	-0.129529	-0.006264	0.129076	0.990440	-0.048660	0.012507	0.047440	0.998796						
04689														1.569519	7.676445	-0.600482	0.991301	-0.131507	-0.005230	0.131073	0.990056	-0.051074	0.011894	0.049945	0.998681						
04690														1.476864	7.616363	-0.682359	0.991138	-0.132715	-0.005594	0.132225	0.989754	-0.053878	0.012687	0.052661	0.998532						
04691														1.700606	7.886085	-0.340776	0.990928	-0.134203	-0.007170	0.133540	0.989233	-0.059868	0.015127	0.058368	0.998181						
04692														1.593168	7.797405	-0.303724	0.990515	-0.137045	-0.009949	0.136142	0.988624	-0.063940	0.018598	0.061979	0.997904						
04693														2.037291	8.263141	-0.393693	0.989664	-0.142800	-0.013134	0.141604	0.987605	-0.067708	0.022639	0.065148	0.997619						
04694														2.669095	9.043631	-0.701833	0.989419	-0.144148	-0.016499	0.142636	0.987203	-0.071312	0.026567	0.068205	0.997318						
04695														3.240021	9.895028	-1.165859	0.989418	-0.143906	-0.018530	0.142221	0.987174	-0.072535	0.028731	0.069132	0.997194						
04696														2.910901	9.975919	-2.233611	0.989823	-0.141001	-0.019215	0.139502	0.988109	-0.064646	0.028102	0.061307	0.997723						
04697														1.518800	10.217212	-2.795662	0.990787	-0.134033	-0.019403	0.132805	0.989630	-0.054722	0.026536	0.051641	0.998313						
04698														0.240785	10.718343	-0.572258	0.992990	-0.116907	-0.017415	0.115808	0.991775	-0.054507	0.023644	0.052109	0.998361						
04699														-0.136050	11.423931	0.832447	0.995001	-0.099497	-0.008547	0.098890	0.993609	-0.054419	0.013907	0.053302	0.998482						
04700														1.226855	9.410542	1.473987	0.996536	-0.082963	0.005700	0.083149	0.995112	-0.053267	-0.001253	0.053556	0.998564						
04701														2.375992	8.248848	0.848967	0.997423	-0.069693	0.017015	0.070434	0.996374	-0.047728	-0.013627	0.048804	0.998715						
04702														2.444728	9.758506	1.021662	0.997926	-0.059141	0.025401	0.060190	0.997272	-0.042724	-0.022804	0.044165	0.998764						
04703														1.199476	11.957199	0.783332	0.998387	-0.045286	0.034256	0.046651	0.998104	-0.040145	-0.032373	0.041678	0.998606						
04704														-0.541705	11.669290	1.196205	0.998522	-0.032283	0.043717	0.034192	0.998462	-0.043638	-0.042241	0.045068	0.998090						
04705														-0.664608	10.436055	0.757531	0.998379	-0.024061	0.051589	0.026415	0.998617	-0.045457	-0.050424	0.046746	0.997633						
04706														0.370276	10.695427	0.522746	0.998205	-0.022231	0.055613	0.024736	0.998691	-0.044778	-0.054545	0.046073	0.997448						
04707														1.259589	11.568524	0.282500	0.998110	-0.024268	0.056456	0.026774	0.998670	-0.044060	-0.055312	0.045488	0.997432						
04708														0.657206	11.508492	-0.132316	0.998224	-0.025177	0.053999	0.027666	0.998565	-0.045844	-0.052767	0.047257	0.997488						
04709														0.169291	11.045303	-0.157489	0.998371	-0.024889	0.051331	0.027318	0.998514	-0.047164	-0.050081	0.048489	0.997567						
04710														0.201717	10.552451	-0.122853	0.998379	-0.025317	0.050973	0.027834	0.998397	-0.049278	-0.049644	0.050617	0.997484						
04711														0.760855	10.252314	-0.111552	0.998352	-0.025282	0.051516	0.027915	0.998306	-0.051046	-0.050139	0.052400	0.997367						
04712														1.257273	9.543300	-0.183767	0.998429	-0.024300	0.050486	0.026993	0.998211	-0.053357	-0.049099	0.054636	0.997298						
04713														0.814246	8.607880	-0.170824	0.998617	-0.022594	0.047481	0.025200	0.998167	-0.055030	-0.046151	0.056150	0.997355						
04714														0.096764	8.088421	-0.037201	0.998790	-0.021241	0.044358	0.023783	0.998056	-0.057603	-0.043049	0.058588	0.997354						
04715														-0.336344	8.048943	0.192598	0.998867	-0.020942	0.042740	0.023577	0.997790	-0.062115	-0.041345	0.063052	0.997153						
04716														-0.193381	8.049903	-0.079817	0.998820	-0.023572	0.042450	0.026415	0.997356	-0.067701	-0.040742	0.068742	0.996802						
04717														0.384562	8.287503	-0.465651	0.998702	-0.027804	0.042682	0.030852	0.996891	-0.072502	-0.040534	0.073725	0.996455						
04718														0.626812	8.895092	-0.598841	0.998585	-0.031272	0.043023	0.034499	0.996478	-0.076425	-0.040481	0.077801	0.996147						
04719														0.645093	9.594952	-0.290482	0.998427	-0.034019	0.044562	0.037543	0.996025	-0.080771	-0.041637	0.082316	0.995736						
04720														-0.134016	9.659918	-0.341936	0.998086	-0.039555	0.047542	0.043433	0.995560	-0.083510	-0.044028	0.085415	0.995372						
04721														-0.768535	9.442662	-0.875935	0.997485	-0.049435	0.050787	0.053519	0.995156	-0.082470	-0.046464	0.084980	0.995299						
04722														-0.101833	9.286401	-1.251929	0.996623	-0.062068	0.053758	0.066162	0.994750	-0.078072	-0.048630	0.081365	0.995497						
04723														1.057851	9.294065	-0.898550	0.995645	-0.075328	0.054930	0.079242	0.994182	-0.072956	-0.049115	0.076991	0.995821						
04724														2.641008	9.663577	0.528170	0.994617	-0.087966	0.054757	0.091658	0.993396	-0.069020	-0.048324	0.073667	0.996111						
04725														3.548743	10.615950	1.297241	0.994103	-0.095772	0.050854	0.099288	0.992463	-0.071822	-0.043593	0.076447	0.996120						
04726														2.518058	9.608075	2.291419	0.993673	-0.103848	0.042764	0.106826	0.991482	-0.074513	-0.034662	0.078610	0.996303						
04727														0.500210	7.973228	1.688347	0.992375	-0.118481	0.033968	0.120659	0.990115	-0.071505	-0.025160	0.075058	0.996862						
04728														-0.223725	8.411752	0.909511	0.989939	-0.139334	0.024621	0.140666	0.987926	-0.064924	-0.015278	0.067734	0.997586						
04729														1.351671	10.097711	0.267295	0.987546	-0.156655	0.014587	0.157272	0.985479	-0.064006	-0.004349	0.065503	0.997843						
04730														3.236356	11.873351	0.428736	0.986163	-0.165750	0.003179	0.165588	0.983911	-0.067086	0.007992	0.066684	0.997742						
04731														4.449678	11.750492	0.077249	0.985397	-0.170184	-0.005480	0.169409	0.983128	-0.068992	0.017129	0.067056	0.997602						
04732														3.102787	10.989947	-0.011461	0.985620	-0.168778	-0.008184	0.167841	0.983452	-0.068203	0.019560	0.065849	0.997638						
04733														1.602766	12.224929	-0.118505	0.985908	-0.167179	-0.006104	0.166481	0.984068	-0.062405	0.016440	0.060510	0.998032						
04734														1.480276	12.238540	-0.357813	0.985739	-0.168275	-0.001698	0.167845	0.983844	-0.062286	0.012151	0.061112	0.998057						
04735														2.301247	11.241923	-0.427231	0.984844	-0.173426	0.002304	0.173235	0.982936	-0.061864	0.008464	0.061326	0.998082						
04736														2.775972	10.184822	-0.611789	0.983834	-0.179048	0.003669	0.178936	0.981972	-0.060931	0.007307	0.060603	0.998135						
04737														2.726855	9.602215	-0.663752	0.982850	-0.184381	0.003118	0.184242	0.981116	-0.058882	0.007798	0.058447	0.998260						
04738														2.122627	9.121061	-0.333791	0.982360	-0.186981	0.002486	0.186790	0.980554	-0.060202	0.008819	0.059604	0.998183						
04739														1.629801	8.458906	-0.155662	0.982084	-0.188425	0.002705	0.188221	0.980119	-0.062770	0.009176	0.062154	0.998024						
04740														1.702042	7.940199	-0.004907	0.981321	-0.192351	0.003039	0.192145	0.979249	-0.064436	0.009418	0.063816	0.997917						
04741														1.873262	7.458924	-0.226389	0.980256	-0.197716	0.002589	0.197476	0.978231	-0.063773	0.010076	0.063025	0.997961						
04742														2.229567	7.083226	-0.379779	0.979211	-0.202837	0.001859	0.202556	0.977283	-0.062366	0.010834	0.061446	0.998052						
04743														2.348922	6.935458	-0.682039	0.978409	-0.206674	0.001546	0.206418	0.976767	-0.057601	0.010394	0.056676	0.998339						
04744														1.873782	7.259013	-1.280640	0.977712	-0.209940	0.001947	0.209774	0.976474	-0.049941	0.008583	0.049237	0.998750						
04745														1.643307	8.032649	-2.085879	0.976905	-0.213666	0.002043	0.213574	0.976100	-0.040176	0.006590	0.039685	0.999191						
04746														3.182200	8.952123	-1.826941	0.977552	-0.210694	-0.000059	0.210511	0.976715	-0.041392	0.008779	0.040450	0.999143						
04747														4.686790	10.719556	-0.493638	0.981190	-0.192982	-0.004840	0.192618	0.980386	-0.041729	0.012798	0.040012	0.999117						
04748														2.013946	13.795487	0.950980	0.985879	-0.167393	-0.004720	0.167033	0.984989	-0.043547	0.011938	0.042144	0.999040						
04749														-1.367890	12.980520	1.762869	0.989090	-0.147184	0.006163	0.147311	0.987985	-0.046754	0.000792	0.047152	0.998887						
04750														-0.646334	8.459806	0.729478	0.991005	-0.132644	0.017713	0.133281	0.990202	-0.041662	-0.012013	0.043648	0.998975						
04751														1.672374	8.238460	0.463822	0.992600	-0.118423	0.026862	0.119383	0.992141	-0.037467	-0.022214	0.040396	0.998937						
04752														2.391704	10.891085	0.755394	0.993326	-0.109872	0.035097	0.111031	0.993270	-0.032956	-0.031240	0.036633	0.998840						
04753														1.428617	11.863880	0.099588	0.993916	-0.101065	0.043778	0.102567	0.994160	-0.033540	-0.040133	0.037826	0.998478						
04754														-0.025609	10.570407	0.202934	0.994496	-0.091273	0.051452	0.093196	0.994986	-0.036297	-0.047881	0.040892	0.998016						
04755														0.106297	10.618869	0.263443	0.994969	-0.082528	0.056791	0.084775	0.995662	-0.038350	-0.053379	0.042972	0.997649						
04756														0.821215	11.264278	0.088303	0.995221	-0.078199	0.058475	0.080682	0.995881	-0.041370	-0.054999	0.045890	0.997431						
04757														1.086356	11.027811	-0.161763	0.995745	-0.072784	0.056519	0.075398	0.996111	-0.045588	-0.052981	0.049656	0.997360						
04758														0.742292	10.439512	-0.317986	0.996543	-0.064031	0.052940	0.066644	0.996565	-0.049161	-0.049610	0.052519	0.997387						
04759														0.235886	9.994053	-0.301614	0.997272	-0.054621	0.049641	0.057262	0.996928	-0.053431	-0.046570	0.056128	0.997337						
04760														0.400896	9.652355	-0.007370	0.997923	-0.043833	0.047205	0.046568	0.997202	-0.058472	-0.044510	0.060549	0.997172						
04761														0.489281	8.811487	0.018232	0.998458	-0.032625	0.044906	0.035502	0.997263	-0.064848	-0.042668	0.066342	0.996884						
04762														0.089763	8.234998	0.081297	0.998820	-0.024574	0.041878	0.027542	0.997036	-0.071833	-0.039989	0.072902	0.996537						
04763														-0.419426	8.066441	-0.197667	0.999081	-0.018545	0.038630	0.021537	0.996680	-0.078523	-0.037045	0.079283	0.996164						
04764														-0.193542	8.142430	-0.549449	0.999225	-0.015379	0.036236	0.018369	0.996322	-0.083691	-0.034816	0.084292	0.995833						
04765														0.172631	8.419672	-0.399010	0.999286	-0.013237	0.035388	0.016341	0.995907	-0.088896	-0.034067	0.089411	0.995412						
04766														-0.481567	9.348722	0.673777	0.999174	-0.015607	0.037523	0.019232	0.994972	-0.098291	-0.035801	0.098931	0.994450						
04767														-2.038723	10.139750	0.691627	0.998758	-0.025686	0.042691	0.029982	0.994203	-0.103258	-0.039791	0.104410	0.993738						
04768														-1.801322	9.584429	-0.621469	0.997641	-0.047859	0.049219	0.052880	0.992920	-0.106365	-0.043780	0.108717	0.993108						
04769														0.972607	9.043704	-1.345924	0.996051	-0.071089	0.053186	0.076245	0.991837	-0.102203	-0.045487	0.105855	0.993341						
04770														2.528383	8.958634	-2.082647	0.994705	-0.087666	0.053634	0.092238	0.991687	-0.089721	-0.045323	0.094193	0.994522						
04771														1.751276	8.463970	-1.798907	0.993791	-0.098027	0.052635	0.101791	0.992023	-0.074355	-0.044927	0.079252	0.995842						
04772														0.273178	8.533736	-0.867570	0.992808	-0.107769	0.052139	0.110743	0.992157	-0.057973	-0.045483	0.063330	0.996956						
04773														0.523723	10.455686	0.510269	0.991230	-0.121590	0.051757	0.124100	0.991088	-0.048408	-0.045409	0.054406	0.997486						
04774														2.507765	12.396953	1.234726	0.989784	-0.135023	0.045793	0.137478	0.988947	-0.055527	-0.037790	0.061255	0.997406						
04775														3.451914	11.035484	1.625688	0.987704	-0.152386	0.034926	0.154068	0.986692	-0.051974	-0.026541	0.056716	0.998038						
04776														2.274360	10.237482	0.903666	0.985191	-0.169842	0.023492	0.170717	0.984409	-0.042351	-0.015933	0.045734	0.998827						
04777														1.878233	11.692806	1.120326	0.983711	-0.179394	0.011422	0.179699	0.983023	-0.037076	-0.004577	0.038524	0.999247						
04778														2.520082	12.061739	1.232631	0.982637	-0.185540	0.000483	0.185429	0.981949	-0.037324	0.006451	0.036766	0.999303						
04779														3.152543	10.799555	0.822185	0.981368	-0.192005	-0.007109	0.191577	0.980661	-0.040039	0.014659	0.037931	0.999173						
04780														3.382419	9.333061	0.031326	0.980990	-0.193673	-0.012241	0.193074	0.980413	-0.038894	0.019534	0.035791	0.999168						
04781														2.710459	9.554794	0.250742	0.981879	-0.188913	-0.015045	0.188250	0.981411	-0.037345	0.021820	0.033837	0.999189						
04782														1.814004	10.383933	0.053715	0.983230	-0.181746	-0.015048	0.181118	0.982807	-0.035880	0.021311	0.032553	0.999243						
04783														1.638242	10.013683	-0.260736	0.983940	-0.177991	-0.013436	0.177355	0.983373	-0.039029	0.020159	0.036020	0.999148						
04784														1.499364	9.078694	-0.134505	0.984463	-0.175208	-0.011624	0.174577	0.983730	-0.042394	0.018862	0.039706	0.999033						
04785														1.717465	8.739919	-0.071198	0.984563	-0.174759	-0.009774	0.174145	0.983657	-0.045737	0.017608	0.043329	0.998906						
04786														1.941336	9.051570	-0.334856	0.984665	-0.174176	-0.009886	0.173483	0.983577	-0.049807	0.018399	0.047329	0.998710						
04787														1.936749	9.177520	-0.342407	0.984935	-0.172525	-0.011785	0.171645	0.983641	-0.054662	0.021022	0.051816	0.998435						
04788														1.803839	9.033413	-0.521447	0.985486	-0.169120	-0.014717	0.167965	0.983969	-0.059939	0.024618	0.056598	0.998094						
04789														1.631533	9.072767	-0.497161	0.985924	-0.166199	-0.018227	0.164699	0.984184	-0.065237	0.028781	0.061316	0.997703						
04790														1.763528	8.975644	-0.635370	0.986246	-0.163693	-0.022894	0.161661	0.984165	-0.072701	0.034432	0.068000	0.997091						
04791														1.878112	8.256722	0.126267	0.987476	-0.154924	-0.029830	0.152420	0.985604	-0.073170	0.040736	0.067707	0.996873						
04792														2.433017	7.769610	-0.773398	0.988180	-0.148961	-0.036203	0.146265	0.986887	-0.068266	0.045897	0.062164	0.997010						
04793														2.077290	7.844772	-1.483920	0.988944	-0.142323	-0.041640	0.139649	0.988301	-0.061319	0.049881	0.054826	0.997249						
04794														1.346077	8.449240	-1.685342	0.989812	-0.134442	-0.046875	0.131731	0.989657	-0.056805	0.054027	0.050051	0.997284						
04795														1.725807	9.682966	-1.499162	0.990341	-0.128928	-0.051018	0.126380	0.990702	-0.050375	0.057038	0.043441	0.997426						
04796														2.382622	10.523678	-2.053615	0.991139	-0.122211	-0.052037	0.120093	0.991871	-0.042064	0.056755	0.035442	0.997759						
04797														2.227838	10.368154	-2.263980	0.992326	-0.112988	-0.050224	0.111507	0.993268	-0.031378	0.053431	0.025537	0.998245						
04798														1.713410	11.170006	-1.689691	0.993805	-0.101397	-0.045499	0.100432	0.994677	-0.023023	0.047592	0.018311	0.998699						
04799														0.113670	12.099307	0.178774	0.995745	-0.084816	-0.036040	0.084050	0.996213	-0.022264	0.037792	0.019140	0.999102						
04800														-0.632971	11.574863	1.592803	0.997227	-0.071132	-0.021867	0.070619	0.997230	-0.023369	0.023469	0.021760	0.999488						
04801														0.671147	8.959117	1.253678	0.998139	-0.060466	-0.007902	0.060280	0.997940	-0.021942	0.009213	0.021424	0.999728						
04802														2.220542	8.581910	0.364386	0.998634	-0.052129	0.003559	0.052187	0.998458	-0.018938	-0.002566	0.019097	0.999814						
04803														2.248968	10.379974	0.700355	0.998895	-0.044766	0.014343	0.045029	0.998813	-0.018571	-0.013495	0.019197	0.999725						
04804														0.461638	11.628748	0.662061	0.999117	-0.034160	0.024453	0.034711	0.999145	-0.022474	-0.023665	0.023302	0.999448						
04805														-1.352436	11.175703	0.940625	0.999200	-0.022395	0.033148	0.023428	0.999241	-0.031119	-0.032426	0.031871	0.998966						
04806														-1.483380	9.568913	0.685422	0.999079	-0.014468	0.040404	0.016030	0.999126	-0.038613	-0.039810	0.039225	0.998437						
04807														-0.362009	10.300350	0.274359	0.998904	-0.014359	0.044542	0.016368	0.998850	-0.045071	-0.043844	0.045751	0.997990						
04808														0.955974	11.698444	-0.238050	0.998756	-0.020869	0.045298	0.023194	0.998408	-0.051415	-0.044153	0.052401	0.997650						
04809														0.637577	11.099572	-0.589095	0.998778	-0.024808	0.042745	0.027300	0.997901	-0.058726	-0.041198	0.059821	0.997359						
04810														0.207402	10.334657	-0.247248	0.998920	-0.024903	0.039237	0.027397	0.997550	-0.064367	-0.037538	0.065372	0.997155						
04811														0.258585	9.861335	-0.064928	0.999046	-0.023131	0.037047	0.025685	0.997215	-0.070014	-0.035325	0.070898	0.996858						
04812														0.446669	9.324598	-0.035382	0.999141	-0.022113	0.035058	0.024743	0.996766	-0.076451	-0.033254	0.077253	0.996457						
04813														0.700789	8.788576	0.112489	0.999267	-0.020976	0.032022	0.023574	0.996267	-0.083046	-0.030161	0.083740	0.996031						
04814														0.318852	8.313072	0.190658	0.999413	-0.019415	0.028225	0.021878	0.995725	-0.089741	-0.026362	0.090306	0.995565						
04815														-0.021046	8.094437	0.068479	0.999503	-0.019337	0.024904	0.021607	0.995299	-0.094407	-0.022961	0.094898	0.995222						
04816														-0.264584	8.275494	-0.377225	0.999506	-0.021632	0.022796	0.023746	0.995002	-0.096993	-0.020584	0.097486	0.995024						
04817														-0.207170	8.497017	-0.540346	0.999463	-0.024781	0.021447	0.026758	0.994885	-0.097401	-0.018924	0.097922	0.995014						
04818														-0.234997	8.455402	-0.739050	0.999426	-0.027343	0.020003	0.029130	0.995021	-0.095314	-0.017298	0.095842	0.995246						
04819														-0.397821	8.291793	-0.740677	0.999365	-0.030693	0.018081	0.032212	0.995351	-0.090766	-0.015211	0.091291	0.995708						
04820														-0.482459	8.555070	-0.739803	0.999162	-0.037296	0.016859	0.038582	0.995736	-0.083794	-0.013662	0.084374	0.996340						
04821														-0.482203	9.135652	-1.111507	0.998752	-0.046864	0.017261	0.048030	0.996040	-0.074821	-0.013687	0.075557	0.997048						
04822														0.395520	9.847219	-0.769177	0.998339	-0.054824	0.017710	0.055854	0.996377	-0.064139	-0.014130	0.065022	0.997784						
04823														2.092223	11.640437	0.105387	0.997726	-0.065249	0.016907	0.066068	0.996377	-0.053561	-0.013351	0.054556	0.998421						
04824														2.663249	11.427406	0.959392	0.996663	-0.080800	0.011604	0.081309	0.995250	-0.053542	-0.007223	0.054307	0.998498						
04825														1.361937	10.605042	1.493556	0.995245	-0.097344	0.003275	0.097389	0.994121	-0.047319	0.001351	0.047413	0.998874						
04826														0.916813	11.108138	1.424740	0.993322	-0.115287	-0.004480	0.114989	0.992431	-0.043113	0.009417	0.042310	0.999060						
04827														1.341683	11.953810	1.029116	0.990911	-0.134040	-0.011341	0.133474	0.990201	-0.041061	0.016734	0.039174	0.999092						
04828														2.650845	11.228791	0.775068	0.988666	-0.148962	-0.018709	0.148068	0.988066	-0.042447	0.024808	0.039195	0.998924						
04829														3.211228	10.343617	0.528422	0.986744	-0.160285	-0.025393	0.159103	0.986315	-0.043237	0.031976	0.038623	0.998742						
04830														3.123219	9.989117	-0.089496	0.985355	-0.168105	-0.028552	0.166810	0.985054	-0.042934	0.035342	0.037543	0.998670						
04831														2.466092	10.757578	-0.483342	0.984956	-0.170660	-0.027135	0.169479	0.984677	-0.041091	0.033732	0.035874	0.998787						
04832														2.227258	10.643935	-0.342377	0.985139	-0.170305	-0.022312	0.169272	0.984671	-0.042073	0.029135	0.037671	0.998865						
04833														1.895580	9.445426	-0.128958	0.985483	-0.168910	-0.017118	0.168050	0.984834	-0.043131	0.024143	0.039628	0.998923						
04834														1.680947	8.793535	-0.158299	0.985742	-0.167794	-0.012536	0.167092	0.984940	-0.044435	0.019804	0.041707	0.998934						
04835														1.566663	8.556791	-0.107600	0.985983	-0.166604	-0.008943	0.166012	0.985004	-0.046983	0.016636	0.044839	0.998856						
04836														1.664192	8.498226	-0.049595	0.986076	-0.166186	-0.006101	0.165647	0.984796	-0.052317	0.014702	0.050578	0.998612						
04837														1.772607	8.271494	-0.111153	0.986077	-0.166248	-0.003635	0.165753	0.984422	-0.058647	0.013328	0.057228	0.998272						
04838														1.834784	8.382597	-0.288005	0.985853	-0.167602	-0.001558	0.167185	0.983974	-0.062007	0.011925	0.060870	0.998074						
04839														1.841999	8.704509	-0.692135	0.985664	-0.168718	-0.000739	0.168345	0.983753	-0.062365	0.011249	0.061347	0.998053						
04840														1.822521	8.984845	-0.836155	0.985327	-0.170679	-0.000518	0.170324	0.983467	-0.061495	0.011005	0.060504	0.998107						
04841														1.839359	9.013487	-0.821777	0.984732	-0.174076	-0.000252	0.173742	0.982928	-0.060544	0.010787	0.059576	0.998165						
04842														1.762209	8.804275	-0.989816	0.984125	-0.177475	-0.000602	0.177152	0.982526	-0.057094	0.010725	0.056081	0.998369						
04843														1.802335	8.626094	-1.212410	0.983771	-0.179425	-0.001407	0.179105	0.982430	-0.052467	0.010797	0.051364	0.998622						
04844														2.402980	8.641547	-1.506250	0.983606	-0.180313	-0.002470	0.179999	0.982538	-0.047104	0.010920	0.045887	0.998887						
04845														3.037560	8.578355	-1.667761	0.984045	-0.177866	-0.004439	0.177537	0.983249	-0.041261	0.011703	0.039815	0.999139						
04846														3.133895	8.963544	-1.655835	0.984830	-0.173421	-0.005961	0.173114	0.984283	-0.034905	0.011921	0.033344	0.999373						
04847														1.967798	10.704643	-0.573241	0.986687	-0.162553	-0.005025	0.162314	0.986222	-0.031934	0.010147	0.030693	0.999477						
04848														0.465780	12.773447	0.628007	0.988656	-0.150199	0.000464	0.150136	0.988138	-0.032304	0.004393	0.032007	0.999478						
04849														0.740344	10.990454	1.293921	0.990195	-0.139487	0.007547	0.139654	0.989724	-0.030715	-0.003185	0.031467	0.999500						
04850														2.080145	9.822116	0.715999	0.992021	-0.125513	0.011897	0.125768	0.991771	-0.023908	-0.008799	0.025214	0.999643						
04851														2.899579	9.914178	0.582606	0.993866	-0.109452	0.015847	0.109704	0.993835	-0.016047	-0.013993	0.017687	0.999746						
04852														2.047963	10.736037	0.392189	0.995705	-0.089881	0.022214	0.090152	0.995862	-0.011490	-0.021089	0.013443	0.999687						
04853														0.314908	11.460835	0.781181	0.996979	-0.071103	0.031254	0.071485	0.997378	-0.011295	-0.030369	0.013495	0.999448						
04854														-1.098831	10.677827	0.569281	0.997729	-0.053491	0.040941	0.054158	0.998414	-0.015365	-0.040054	0.017547	0.999043						
04855														-0.999048	9.815320	0.532643	0.997971	-0.041890	0.047944	0.042894	0.998877	-0.020117	-0.047047	0.022133	0.998647						
04856														0.335824	10.741008	0.282555	0.998031	-0.036947	0.050685	0.038124	0.999021	-0.022456	-0.049805	0.024344	0.998462						
04857														1.151979	11.339771	-0.506645	0.998155	-0.036734	0.048350	0.037933	0.998989	-0.024127	-0.047415	0.025916	0.998539						
04858														0.771430	10.655658	-0.509253	0.998486	-0.033122	0.043920	0.034400	0.998997	-0.028662	-0.042927	0.030130	0.998624						
04859														0.172134	10.049157	-0.357719	0.998864	-0.025227	0.040423	0.026560	0.999109	-0.032802	-0.039559	0.033838	0.998644						
04860														0.116817	9.690381	-0.249778	0.999130	-0.016788	0.038183	0.018233	0.999118	-0.037831	-0.037514	0.038495	0.998554						
04861														0.321529	9.437129	-0.249272	0.999299	-0.009937	0.036089	0.011499	0.998994	-0.043344	-0.035622	0.043728	0.998408						
04862														0.437113	9.104334	-0.219359	0.999450	-0.004429	0.032874	0.006092	0.998697	-0.050661	-0.032607	0.050833	0.998175						
04863														0.220553	8.857704	-0.086285	0.999550	0.000721	0.029980	0.001014	0.998328	-0.057800	-0.029971	0.057805	0.997878						
04864														-0.139258	8.552293	-0.124381	0.999589	0.005194	0.028183	-0.003384	0.997950	-0.063910	-0.028458	0.063789	0.997558						
04865														-0.211029	8.577996	-0.414298	0.999612	0.008320	0.026567	-0.006489	0.997645	-0.068276	-0.027072	0.068077	0.997313						
04866														-0.222532	8.558297	-0.572321	0.999649	0.010252	0.024448	-0.008495	0.997443	-0.070954	-0.025113	0.070722	0.997180						
04867														-0.146009	8.546629	-0.582106	0.999704	0.009802	0.022258	-0.008154	0.997302	-0.072952	-0.022913	0.072749	0.997087						
04868														-0.393142	9.003034	-0.156297	0.999741	0.006863	0.021691	-0.005183	0.997053	-0.076546	-0.022152	0.076414	0.996830						
04869														-0.983913	9.810434	-0.181223	0.999715	-0.002698	0.023712	0.004600	0.996741	-0.080538	-0.023417	0.080624	0.996469						
04870														-1.040446	10.071079	-0.953432	0.999453	-0.018994	0.027090	0.021110	0.996565	-0.080081	-0.025476	0.080609	0.996420						
04871														0.410983	9.322732	-1.958196	0.999057	-0.032976	0.028253	0.034975	0.996685	-0.073462	-0.025736	0.074381	0.996898						
04872														1.562563	8.869189	-1.949514	0.998919	-0.038287	0.026354	0.039774	0.997499	-0.058425	-0.024051	0.059410	0.997944						
04873														1.781269	9.875297	0.396502	0.998843	-0.041484	0.024333	0.042629	0.997909	-0.048575	-0.022267	0.049556	0.998523						
04874														1.861655	11.945495	1.102663	0.998163	-0.057031	0.020455	0.057851	0.997438	-0.042069	-0.018004	0.043175	0.998905						
04875														1.986040	12.919906	0.855063	0.997244	-0.073249	0.011771	0.073655	0.996528	-0.038814	-0.008887	0.039574	0.999177						
04876														0.837592	10.747787	1.010129	0.996078	-0.088351	0.004792	0.088458	0.995592	-0.031186	-0.002015	0.031488	0.999502						
04877														0.470313	10.369052	0.586774	0.994341	-0.106233	-0.001100	0.106186	0.994118	-0.021314	0.003358	0.021076	0.999772						
04878														1.410366	9.611582	0.478849	0.992219	-0.124157	-0.009315	0.124012	0.992170	-0.014793	0.011079	0.013522	0.999847						
04879														2.681175	9.112614	0.438021	0.990534	-0.136035	-0.018338	0.135847	0.990667	-0.011130	0.019681	0.008533	0.999770						
04880														3.587994	9.280354	-0.269473	0.989126	-0.145223	-0.023218	0.145083	0.989390	-0.007620	0.024079	0.004168	0.999701						
04881														3.200256	10.001030	-0.819894	0.988917	-0.146831	-0.021976	0.146818	0.989161	-0.002226	0.022065	-0.001025	0.999756						
04882														1.981563	10.739415	-0.615231	0.989621	-0.142871	-0.015455	0.142944	0.989724	0.003738	0.014762	-0.005908	0.999874						
04883														0.975925	10.068726	-0.387806	0.990212	-0.139319	-0.008373	0.139378	0.990216	0.006845	0.007338	-0.007945	0.999942						
04884														0.915524	9.084474	-0.407577	0.990026	-0.140839	-0.003628	0.140867	0.989985	0.009297	0.002282	-0.009715	0.999950						
04885														1.324704	8.683281	-0.621944	0.989527	-0.144342	-0.001246	0.144347	0.989473	0.010372	-0.000264	-0.010443	0.999945						
04886														1.844010	8.768358	-0.801106	0.988763	-0.149489	0.000341	0.149478	0.988716	0.009804	-0.001803	-0.009643	0.999952						
04887														2.121150	8.844670	-0.878324	0.988074	-0.153967	0.001782	0.153951	0.988053	0.007066	-0.002849	-0.006708	0.999973						
04888														2.220163	9.218096	-1.128128	0.987646	-0.156684	0.002446	0.156668	0.987634	0.005771	-0.003320	-0.005317	0.999980						
04889														2.122218	9.342256	-1.378653	0.987506	-0.157563	0.002512	0.157553	0.987504	0.003554	-0.003040	-0.003114	0.999991						
04890														1.808758	9.320322	-1.348144	0.987414	-0.158150	0.001717	0.158147	0.987414	0.001769	-0.001975	-0.001475	0.999997						
04891														1.735070	9.161415	-1.244053	0.987248	-0.159192	-0.000177	0.159192	0.987247	0.000704	0.000063	-0.000724	1.000000						
04892														1.829669	9.070724	-1.202071	0.986957	-0.160963	-0.002430	0.160966	0.986959	0.001009	0.002236	-0.001387	0.999997						
04893														2.162967	9.133316	-1.000014	0.986571	-0.163279	-0.004248	0.163287	0.986577	0.001515	0.003944	-0.002188	0.999990						
04894														2.241032	9.492817	-0.457527	0.986416	-0.164181	-0.005261	0.164184	0.986430	0.000161	0.005163	-0.001023	0.999986						
04895														1.768009	9.866415	0.162261	0.985885	-0.167334	-0.005453	0.167324	0.985900	-0.002218	0.005747	0.001275	0.999983						
04896														1.390220	9.539659	-0.596217	0.984661	-0.174390	-0.005599	0.174375	0.984675	-0.003091	0.006052	0.002067	0.999980						
04897														1.672185	9.493430	-1.674810	0.984053	-0.177756	-0.006447	0.177738	0.984072	-0.003294	0.006930	0.002095	0.999974						
04898														3.032717	9.567354	-2.491239	0.984569	-0.174855	-0.007053	0.174853	0.984594	-0.000944	0.007109	-0.000304	0.999975						
04899														3.574350	9.334677	-2.423517	0.985920	-0.167083	-0.006736	0.167085	0.985942	-0.000294	0.006690	-0.000835	0.999977						
04900														3.084000	9.150320	-2.449132	0.987740	-0.155947	-0.007118	0.155967	0.987759	0.002441	0.006650	-0.003521	0.999972						
04901														2.287982	9.263156	-2.700999	0.989811	-0.142201	-0.007295	0.142247	0.989812	0.006146	0.006347	-0.007121	0.999955						
04902														1.771573	8.741931	-2.716092	0.991580	-0.129367	-0.005748	0.129422	0.991533	0.010597	0.004328	-0.011252	0.999927						
04903														2.179830	9.008969	-2.112735	0.992695	-0.120620	-0.002726	0.120649	0.992548	0.017106	0.000642	-0.017310	0.999850						
04904														2.012555	10.423034	-0.247186	0.993903	-0.110220	0.002769	0.110164	0.993790	0.015643	-0.004476	-0.015242	0.999874						
04905														0.235902	13.482563	3.219244	0.995711	-0.091606	0.012959	0.091548	0.995788	0.005006	-0.013363	-0.003798	0.999904						
04906														-0.206809	11.237646	2.535419	0.996289	-0.082725	0.023761	0.082880	0.996544	-0.005608	-0.023215	0.007556	0.999702						
04907														1.480529	7.841712	0.628935	0.996932	-0.072569	0.029332	0.072880	0.997294	-0.009677	-0.028550	0.011785	0.999523						
04908														2.721020	9.017745	-0.139363	0.997783	-0.055651	0.036492	0.056092	0.998363	-0.011183	-0.035810	0.013205	0.999271						
04909														2.404526	11.540570	0.218707	0.998299	-0.032045	0.048708	0.032895	0.999318	-0.016756	-0.048138	0.018330	0.998673						
04910														-0.165588	12.153565	1.273225	0.997901	-0.015688	0.062832	0.017129	0.999601	-0.022473	-0.062455	0.023502	0.997771						
04911														-1.750051	11.424787	-0.213213	0.997560	-0.011038	0.068942	0.013055	0.999498	-0.028879	-0.068589	0.029708	0.997203						
04912														-0.570207	10.896410	-0.426307	0.997803	-0.011689	0.065216	0.013813	0.999386	-0.032204	-0.064800	0.033034	0.997351						
04913														1.033299	10.734458	0.078561	0.998195	-0.014621	0.058246	0.016564	0.999318	-0.033014	-0.057724	0.033920	0.997756						
04914														1.445976	9.732213	0.113897	0.998635	-0.013413	0.050484	0.015098	0.999337	-0.033144	-0.050006	0.033861	0.998175						
04915														1.504152	8.550571	0.162174	0.999016	-0.006932	0.043815	0.008373	0.999427	-0.032785	-0.043563	0.033119	0.998502						
04916														1.223942	8.145756	-0.060183	0.999217	0.002344	0.039500	-0.001007	0.999427	-0.033836	-0.039557	0.033770	0.998646						
04917														0.029076	8.192010	-0.117323	0.999221	0.012967	0.037278	-0.011590	0.999251	-0.036928	-0.037729	0.036468	0.998622						
04918														-0.825039	8.950710	0.153833	0.999147	0.020417	0.035881	-0.018942	0.998981	-0.040972	-0.036681	0.040257	0.998516						
04919														-0.204636	9.487670	0.032639	0.999189	0.020433	0.034706	-0.018878	0.998828	-0.044559	-0.035575	0.043867	0.998404						
04920														0.820012	9.678285	-0.388036	0.999292	0.017479	0.033323	-0.015930	0.998805	-0.046193	-0.034090	0.045630	0.998377						
04921														1.167726	9.682100	-0.615213	0.999352	0.017089	0.031675	-0.015616	0.998811	-0.046178	-0.032427	0.045654	0.998431						
04922														0.844896	9.707044	-0.636371	0.999385	0.018010	0.030082	-0.016568	0.998734	-0.047503	-0.030899	0.046975	0.998418						
04923														0.447698	9.714333	-0.578894	0.999414	0.018483	0.028795	-0.017022	0.998593	-0.050213	-0.029683	0.049693	0.998323						
04924														0.080886	9.757113	-0.645631	0.999479	0.016990	0.027442	-0.015518	0.998474	-0.053002	-0.028301	0.052549	0.998217						
04925														-0.261502	9.644955	-0.723009	0.999587	0.012318	0.025963	-0.010880	0.998436	-0.054841	-0.026598	0.054536	0.998157						
04926														-0.447873	9.499746	-0.840076	0.999692	0.004510	0.024404	-0.003151	0.998457	-0.055435	-0.024617	0.055342	0.998164						
04927														-0.167054	9.226726	-0.949551	0.999728	-0.006221	0.022498	0.007443	0.998478	-0.054647	-0.022124	0.054800	0.998252						
04928														0.571473	9.031102	-0.641704	0.999605	-0.018194	0.021439	0.019308	0.998411	-0.052947	-0.020441	0.053340	0.998367						
04929														0.948274	8.944298	-0.509183	0.999319	-0.029628	0.021981	0.030704	0.998259	-0.050351	-0.020450	0.050992	0.998490						
04930														0.952203	9.225254	-0.733332	0.998948	-0.039675	0.022999	0.040704	0.998105	-0.046148	-0.021125	0.047035	0.998670						
04931														1.027282	9.717591	-0.881921	0.998579	-0.048210	0.022729	0.049106	0.997965	-0.040683	-0.020722	0.041741	0.998914						
04932														0.564012	9.870929	-1.177992	0.998195	-0.055748	0.022355	0.056495	0.997813	-0.034326	-0.020393	0.035527	0.999161						
04933														-0.421463	9.574148	-1.566814	0.997664	-0.064374	0.022844	0.065029	0.997457	-0.029172	-0.020908	0.030589	0.999313						
04934														-0.536082	9.320809	-1.879105	0.997137	-0.072080	0.022851	0.072613	0.997085	-0.023438	-0.021095	0.025030	0.999464						
04935														-0.260855	9.489047	-1.969041	0.996691	-0.078422	0.021366	0.078766	0.996769	-0.015759	-0.020061	0.017390	0.999648						
04936														0.169133	9.563949	-2.313665	0.996136	-0.085830	0.018592	0.086014	0.996250	-0.009318	-0.017723	0.010881	0.999784						
04937														0.498556	9.607503	-1.218291	0.995576	-0.092725	0.015161	0.092807	0.995672	-0.004827	-0.014647	0.006213	0.999873						
04938														2.027546	12.166660	1.232800	0.995675	-0.092656	0.006761	0.092710	0.995660	-0.008165	-0.005975	0.008757	0.999944						
04939														2.873598	11.905071	2.553158	0.996219	-0.086610	-0.006752	0.086511	0.996156	-0.013731	0.007916	0.013095	0.999883						
04940														1.208379	9.336680	1.511579	0.995090	-0.098355	-0.011058	0.098237	0.995104	-0.010804	0.012066	0.009664	0.999880						
04941														0.443387	10.902842	0.278833	0.993244	-0.115320	-0.012942	0.115228	0.993310	-0.007652	0.013738	0.006109	0.999887						
04942														1.250474	13.521498	0.637951	0.991054	-0.132146	-0.018694	0.131997	0.991209	-0.008979	0.019716	0.006431	0.999785						
04943														2.471025	11.023017	0.755004	0.989139	-0.144924	-0.024499	0.144562	0.989367	-0.015980	0.026554	0.012265	0.999572						
04944														3.430221	9.954281	-0.089260	0.987032	-0.158050	-0.028063	0.157608	0.987350	-0.017338	0.030449	0.012690	0.999456						
04945														3.774750	10.090789	-0.800024	0.986331	-0.162636	-0.026486	0.162283	0.986630	-0.014997	0.028571	0.010494	0.999537						
04946														2.701265	10.235611	-0.219772	0.986265	-0.163826	-0.021050	0.163479	0.986396	-0.017265	0.023592	0.013586	0.999629						
04947														1.691309	9.895739	-0.076447	0.986077	-0.165561	-0.015548	0.165315	0.986112	-0.015943	0.017971	0.013151	0.999752						
04948														1.040507	9.063127	-0.069753	0.985599	-0.168717	-0.011402	0.168558	0.985596	-0.013721	0.013552	0.011602	0.999841						
04949														0.724788	8.539284	0.047375	0.984675	-0.174197	-0.008430	0.174089	0.984655	-0.012165	0.010420	0.010511	0.999890						
04950														1.488331	8.441305	0.036506	0.982998	-0.183489	-0.006863	0.183369	0.982926	-0.015220	0.009539	0.013702	0.999861						
04951														2.549605	8.524496	0.250955	0.981316	-0.192317	-0.005790	0.192149	0.981120	-0.021974	0.009907	0.020451	0.999742						
04952														2.696052	8.726016	0.027032	0.980019	-0.198857	-0.004254	0.198673	0.979691	-0.027090	0.009554	0.025704	0.999624						
04953														1.962744	9.029503	-0.318394	0.979275	-0.202525	-0.002054	0.202369	0.978832	-0.030574	0.008203	0.029524	0.999530						
04954														1.735461	9.259459	-0.558655	0.978573	-0.205901	-0.000232	0.205769	0.977984	-0.034723	0.007376	0.033932	0.999397						
04955														1.962743	8.765982	-0.323318	0.977699	-0.210010	0.000299	0.209858	0.976935	-0.039462	0.007996	0.038644	0.999221						
04956														1.996320	8.582961	-0.603623	0.976551	-0.215284	-0.000088	0.215125	0.975846	-0.038023	0.008272	0.037112	0.999277						
04957														2.421177	8.960626	-1.160166	0.975260	-0.221060	-0.000029	0.220914	0.974624	-0.036129	0.008015	0.035229	0.999347						
04958														2.756550	9.125764	-1.423071	0.974711	-0.223470	0.000394	0.223353	0.974138	-0.034198	0.007259	0.033421	0.999415						
04959														2.586479	9.048564	-1.452695	0.975372	-0.220565	-0.000206	0.220443	0.974863	-0.032373	0.007341	0.031530	0.999476						
04960														2.714221	9.172128	-1.310493	0.977118	-0.212694	-0.001523	0.212555	0.976692	-0.029885	0.007844	0.028878	0.999552						
04961														2.757019	9.188193	-1.294780	0.979553	-0.201170	-0.002609	0.201026	0.979204	-0.027361	0.008059	0.026277	0.999622						
04962														2.815519	9.180017	-1.336889	0.982287	-0.187345	-0.003836	0.187177	0.981956	-0.026976	0.008821	0.025780	0.999629						
04963														2.648929	9.159118	-1.386743	0.985331	-0.170558	-0.005652	0.170375	0.985079	-0.024343	0.009720	0.023022	0.999688						
04964														2.208563	9.104707	-1.227333	0.987837	-0.155348	-0.006675	0.155208	0.987718	-0.017980	0.009387	0.016725	0.999816						
04965														2.159366	8.653355	-1.551656	0.990038	-0.140630	-0.006967	0.140562	0.990027	-0.009451	0.008227	0.008377	0.999931						
04966														1.618235	9.644692	-1.391939	0.991431	-0.130544	-0.004890	0.130563	0.991433	0.003831	0.004348	-0.004437	0.999981						
04967														1.218982	11.050362	-0.125218	0.992620	-0.121264	-0.000406	0.121265	0.992615	0.003097	0.000027	-0.003124	0.999995						
04968														-0.003174	13.142675	0.683320	0.994024	-0.108940	0.006911	0.108911	0.994042	0.004460	-0.007356	-0.003681	0.999966						
04969														0.319518	11.851095	0.970020	0.994268	-0.105514	0.017250	0.105505	0.994418	0.001449	-0.017307	0.000380	0.999850						
04970														1.514427	9.322666	-0.184362	0.994024	-0.106534	0.023807	0.106395	0.994299	0.007012	-0.024419	-0.004437	0.999692						
04971														2.804820	9.877785	-0.559676	0.994643	-0.099144	0.029258	0.098864	0.995042	0.010878	-0.030191	-0.007927	0.999513						
04972														1.458915	10.932598	0.283160	0.995946	-0.081851	0.037310	0.081583	0.996629	0.008652	-0.037893	-0.005573	0.999266						
04973														-0.689864	10.582686	0.808021	0.996819	-0.064555	0.046736	0.064555	0.997913	0.001526	-0.046737	0.001496	0.998906						
04974														-0.818299	9.867211	0.791304	0.996939	-0.055548	0.055013	0.056007	0.998407	-0.006829	-0.054546	0.009889	0.998462						
04975														0.233854	10.568107	0.113896	0.996787	-0.054047	0.059121	0.054870	0.998417	-0.012382	-0.058358	0.015586	0.998174						
04976														0.459829	10.953470	-0.609195	0.997092	-0.051515	0.056158	0.052672	0.998425	-0.019330	-0.055073	0.022232	0.998235						
04977														0.345138	10.438468	-0.518993	0.997622	-0.047243	0.050183	0.048481	0.998542	-0.023757	-0.048987	0.026133	0.998457						
04978														0.539956	10.023184	-0.477789	0.998112	-0.041196	0.045565	0.042540	0.998676	-0.028928	-0.044313	0.030811	0.998542						
04979														0.804220	9.671633	-0.567703	0.998496	-0.034029	0.042976	0.035514	0.998781	-0.034269	-0.041758	0.035744	0.998488						
04980														0.683971	9.390180	-0.534932	0.998826	-0.026239	0.040723	0.027968	0.998705	-0.042497	-0.039556	0.043586	0.998266						
04981														0.016232	8.807610	-0.087119	0.999151	-0.017177	0.037441	0.019056	0.998546	-0.050429	-0.036521	0.051100	0.998026						
04982														-0.441729	8.394016	-0.015227	0.999372	-0.011555	0.033497	0.013459	0.998273	-0.057176	-0.032778	0.057591	0.997802						
04983														-0.455070	8.311106	-0.333936	0.999497	-0.010968	0.029772	0.012808	0.997973	-0.062344	-0.029028	0.062694	0.997611						
04984														-0.202483	8.795294	-0.643069	0.999534	-0.013975	0.027126	0.015713	0.997765	-0.064943	-0.026158	0.065339	0.997520						
04985														-0.142629	8.998652	-0.633107	0.999518	-0.017101	0.025914	0.018788	0.997623	-0.066295	-0.024718	0.066750	0.997463						
04986														0.178882	8.817199	-0.683807	0.999465	-0.020603	0.025386	0.022245	0.997559	-0.066191	-0.023961	0.066720	0.997484						
04987														0.433164	8.808068	-0.867100	0.999379	-0.024853	0.024989	0.026410	0.997596	-0.064067	-0.023336	0.064687	0.997633						
04988														0.287041	9.522399	-0.827845	0.999247	-0.029622	0.025068	0.031089	0.997695	-0.060324	-0.023224	0.061058	0.997864						
04989														-0.068261	10.072854	-0.986442	0.999055	-0.035007	0.025759	0.036389	0.997806	-0.055301	-0.023767	0.056186	0.998137						
04990														-0.131950	9.942424	-1.203215	0.998766	-0.041952	0.026569	0.043247	0.997801	-0.050224	-0.024404	0.051311	0.998384						
04991														0.161933	9.681592	-1.057623	0.998379	-0.049999	0.027201	0.051170	0.997712	-0.044196	-0.024929	0.045516	0.998653						
04992														0.701087	10.377710	-0.390538	0.998168	-0.054377	0.026513	0.055439	0.997615	-0.041117	-0.024214	0.042512	0.998802						
04993														1.867879	12.289313	0.501632	0.998408	-0.051603	0.022771	0.052483	0.997825	-0.039885	-0.020664	0.041017	0.998945						
04994														1.846638	10.907301	0.666308	0.998559	-0.049437	0.020872	0.050314	0.997772	-0.043801	-0.018660	0.044788	0.998822						
04995														0.046935	9.701357	0.357438	0.998083	-0.057639	0.022532	0.058475	0.997552	-0.038362	-0.020265	0.039606	0.999010						
04996														-0.182167	11.562122	-0.090036	0.997034	-0.073161	0.023908	0.073865	0.996816	-0.030014	-0.021637	0.031691	0.999264						
04997														1.351061	11.515170	0.100601	0.995733	-0.089235	0.023534	0.089883	0.995556	-0.028079	-0.020923	0.030075	0.999329						
04998														2.766343	10.722154	0.612555	0.994239	-0.105088	0.021117	0.105661	0.994004	-0.028142	-0.018033	0.030211	0.999381						
04999														3.360087	9.406710	0.879296	0.992767	-0.118737	0.017746	0.119251	0.992365	-0.031478	-0.013872	0.033367	0.999347						
05000														3.258983	8.652607	0.918831	0.991337	-0.130542	0.014503	0.130981	0.990760	-0.035183	-0.009776	0.036778	0.999276						
