// General information: 
//  MT Manager version: 2022.2.0 
//  XDA version: 2022.2.0 build 7381 rev 124627 built on 2023-07-19
// Device information: 
//  DeviceId: 00B4D4CD
//  ProductCode: MTW2-3A7G6
//  Firmware Version: 4.6.0
//  Hardware Version: 2.0.0
// Device settings: 
//  Filter Profile: human(46.1)
//  Option Flags: Orientation Smoother Disabled, Position/Velocity Smoother Disabled, Continuous Zero Rotation Update Disabled, AHS Disabled, ICC Disabled
// Coordinate system: ENU
PacketCounter	SampleTimeFine	Year	Month	Day	Second	UTC_Nano	UTC_Year	UTC_Month	UTC_Day	UTC_Hour	UTC_Minute	UTC_Second	UTC_Valid	Acc_X	Acc_Y	Acc_Z	Mat[1][1]	Mat[2][1]	Mat[3][1]	Mat[1][2]	Mat[2][2]	Mat[3][2]	Mat[1][3]	Mat[2][3]	Mat[3][3]	Latitude	Longitude	Altitude	Vel_E	Vel_N	Vel_U
04221														1.068287	-9.867757	-0.126294	0.999942	-0.010160	0.003645	0.010221	0.999799	-0.017251	-0.003469	0.017287	0.999845						
04222														1.094445	-9.752551	-0.030804	0.999938	-0.010139	0.004560	0.010220	0.999784	-0.018124	-0.004375	0.018169	0.999825						
04223														0.920599	-9.699024	-0.163346	0.999938	-0.009694	0.005536	0.009797	0.999776	-0.018779	-0.005352	0.018832	0.999808						
04224														1.059789	-9.712622	-0.131585	0.999928	-0.010181	0.006305	0.010300	0.999765	-0.019078	-0.006109	0.019141	0.999798						
04225														1.099836	-9.735365	-0.148962	0.999922	-0.010455	0.006779	0.010585	0.999756	-0.019407	-0.006575	0.019477	0.999789						
04226														1.064009	-9.716868	-0.247350	0.999921	-0.010234	0.007331	0.010378	0.999751	-0.019761	-0.007127	0.019835	0.999778						
04227														1.097042	-9.581099	-0.178790	0.999918	-0.010382	0.007531	0.010530	0.999746	-0.019944	-0.007322	0.020022	0.999773						
04228														1.272134	-9.412880	-0.102116	0.999904	-0.011208	0.008109	0.011382	0.999699	-0.021727	-0.007863	0.021817	0.999731						
04229														1.304303	-9.946892	-0.607759	0.999862	-0.011179	0.012253	0.011486	0.999614	-0.025298	-0.011965	0.025435	0.999605						
04230														0.384065	-10.184497	-0.219373	0.999838	-0.006280	0.016892	0.006731	0.999619	-0.026767	-0.016718	0.026877	0.999499						
04231														0.672519	-10.185315	0.140631	0.999823	0.005285	0.018079	-0.004798	0.999626	-0.026917	-0.018214	0.026825	0.999474						
04232														1.254797	-9.490072	0.157563	0.999725	0.016702	0.016491	-0.016275	0.999538	-0.025664	-0.016912	0.025389	0.999535						
04233														1.175276	-9.434552	-0.053993	0.999576	0.025898	0.013318	-0.025569	0.999377	-0.024323	-0.013940	0.023973	0.999615						
04234														0.835899	-9.512237	-0.003608	0.999240	0.037723	0.009843	-0.037491	0.999038	-0.022764	-0.010692	0.022378	0.999692						
04235														1.329039	-9.529356	-0.089794	0.998718	0.050298	0.005720	-0.050170	0.998528	-0.020613	-0.006749	0.020300	0.999771						
04236														1.436897	-9.759899	-0.362526	0.998150	0.060742	0.002451	-0.060688	0.997990	-0.018246	-0.003555	0.018064	0.999831						
04237														1.412445	-9.805418	-0.443420	0.997662	0.068348	-0.000056	-0.068341	0.997536	-0.015832	-0.001026	0.015799	0.999875						
04238														1.453465	-9.634416	-0.419546	0.997433	0.071589	-0.001467	-0.071603	0.997330	-0.014350	0.000436	0.014419	0.999896						
04239														1.346190	-9.692750	-0.226203	0.997450	0.071345	-0.001951	-0.071365	0.997354	-0.013824	0.000959	0.013928	0.999903						
04240														0.895336	-9.723406	-0.040439	0.997448	0.071376	-0.001605	-0.071391	0.997346	-0.014314	0.000579	0.014392	0.999896						
04241														1.072966	-9.700915	-0.133152	0.997349	0.072742	-0.001876	-0.072762	0.997237	-0.014988	0.000780	0.015085	0.999886						
04242														1.283090	-9.676997	-0.361689	0.997436	0.071526	-0.002209	-0.071552	0.997315	-0.015609	0.001087	0.015727	0.999876						
04243														1.281985	-9.685384	-0.397602	0.997767	0.066748	-0.002201	-0.066774	0.997646	-0.015643	0.001152	0.015755	0.999875						
04244														0.952004	-9.699379	-0.282835	0.998033	0.062666	-0.001816	-0.062687	0.997906	-0.015931	0.000814	0.016014	0.999871						
04245														1.055144	-9.668919	-0.206570	0.998338	0.057590	-0.001909	-0.057615	0.998190	-0.017238	0.000913	0.017320	0.999850						
04246														1.040791	-9.765643	-0.182908	0.998663	0.051669	-0.001461	-0.051688	0.998483	-0.018965	0.000478	0.019016	0.999819						
04247														0.676119	-9.760967	-0.042054	0.998845	0.048030	-0.001304	-0.048046	0.998640	-0.020247	0.000330	0.020286	0.999794						
04248														0.901258	-9.708686	-0.192377	0.999030	0.044017	-0.001517	-0.044040	0.998797	-0.021585	0.000565	0.021631	0.999766						
04249														1.174505	-9.768626	-0.200061	0.999234	0.039121	-0.001389	-0.039143	0.998970	-0.022950	0.000490	0.022987	0.999736						
04250														0.978446	-9.791352	-0.289992	0.999380	0.035188	-0.000685	-0.035194	0.999085	-0.024315	-0.000171	0.024324	0.999704						
04251														0.888581	-9.777812	-0.313218	0.999469	0.032588	0.000361	-0.032568	0.999124	-0.026285	-0.001217	0.026260	0.999654						
04252														1.108260	-9.785549	-0.266873	0.999550	0.029978	0.000894	-0.029940	0.999142	-0.028629	-0.001752	0.028590	0.999590						
04253														1.015700	-9.797487	-0.307579	0.999605	0.028068	0.001671	-0.028003	0.999129	-0.030929	-0.002538	0.030870	0.999520						
04254														0.792482	-9.773021	-0.218730	0.999613	0.027714	0.002215	-0.027626	0.999080	-0.032811	-0.003122	0.032737	0.999459						
04255														1.132021	-9.614620	-0.119904	0.999646	0.026475	0.002650	-0.026369	0.999068	-0.034176	-0.003552	0.034094	0.999412						
04256														0.907760	-9.733029	-0.148121	0.999671	0.025425	0.003326	-0.025290	0.999047	-0.035577	-0.004228	0.035481	0.999361						
04257														0.770178	-9.818846	-0.268487	0.999614	0.027545	0.003725	-0.027390	0.998957	-0.036547	-0.004728	0.036431	0.999325						
04258														1.370016	-9.753042	-0.349955	0.999578	0.028784	0.004019	-0.028616	0.998904	-0.037032	-0.005080	0.036901	0.999306						
04259														1.115886	-9.815443	-0.460890	0.999574	0.028818	0.004652	-0.028626	0.998901	-0.037099	-0.005716	0.036950	0.999301						
04260														1.005730	-9.678817	-0.304941	0.999543	0.029831	0.004985	-0.029626	0.998869	-0.037178	-0.006088	0.037013	0.999296						
04261														1.030025	-9.607112	-0.179039	0.999514	0.030741	0.005107	-0.030526	0.998816	-0.037870	-0.006265	0.037695	0.999270						
04262														0.922504	-9.755750	-0.374138	0.999459	0.032551	0.004799	-0.032346	0.998753	-0.038021	-0.006031	0.037845	0.999265						
04263														1.067490	-9.675421	-0.438990	0.999439	0.033265	0.003963	-0.033094	0.998749	-0.037481	-0.005205	0.037329	0.999289						
04264														1.131140	-9.647615	-0.367502	0.999432	0.033560	0.002915	-0.033426	0.998726	-0.037814	-0.004180	0.037696	0.999281						
04265														0.956844	-9.771536	-0.276207	0.999406	0.034380	0.002201	-0.034269	0.998669	-0.038543	-0.003523	0.038445	0.999255						
04266														0.955133	-9.852040	-0.326244	0.999394	0.034773	0.001702	-0.034677	0.998604	-0.039836	-0.003085	0.039753	0.999205						
04267														1.025241	-9.820739	-0.357894	0.999351	0.035999	0.001196	-0.035921	0.998531	-0.040575	-0.002655	0.040506	0.999176						
04268														1.061867	-9.710590	-0.496237	0.999348	0.036107	0.000739	-0.036046	0.998493	-0.041376	-0.002231	0.041323	0.999143						
04269														1.138732	-9.705587	-0.608424	0.999467	0.032621	0.001302	-0.032533	0.998506	-0.043911	-0.002732	0.043845	0.999035						
04270														1.186798	-9.861752	-0.428084	0.999571	0.029209	0.002016	-0.029086	0.998532	-0.045703	-0.003348	0.045625	0.998953						
04271														1.012102	-9.824016	-0.467524	0.999652	0.026209	0.002954	-0.026042	0.998564	-0.046816	-0.004177	0.046722	0.998899						
04272														1.101787	-9.648238	-0.395781	0.999714	0.023640	0.003526	-0.023445	0.998577	-0.047897	-0.004654	0.047801	0.998846						
04273														1.179931	-9.615889	-0.559140	0.999774	0.020848	0.004064	-0.020624	0.998588	-0.048953	-0.005079	0.048858	0.998793						
04274														1.074855	-9.741367	-0.371549	0.999841	0.017150	0.004846	-0.016887	0.998609	-0.049948	-0.005696	0.049858	0.998740						
04275														0.796628	-9.700725	-0.150691	0.999882	0.014425	0.005197	-0.014142	0.998600	-0.050964	-0.005924	0.050884	0.998687						
04276														0.926254	-9.602525	-0.345116	0.999899	0.013236	0.005126	-0.012947	0.998523	-0.052759	-0.005816	0.052687	0.998594						
04277														1.087220	-9.689829	-0.451603	0.999910	0.012157	0.005627	-0.011831	0.998437	-0.054618	-0.006282	0.054546	0.998491						
04278														1.141724	-9.617388	-0.293518	0.999917	0.011191	0.006434	-0.010810	0.998344	-0.056510	-0.007056	0.056436	0.998381						
04279														1.051836	-9.901052	-0.371839	0.999899	0.012256	0.007178	-0.011813	0.998200	-0.058797	-0.007886	0.058707	0.998244						
04280														1.078576	-10.029327	-0.467571	0.999878	0.013587	0.007643	-0.013109	0.998145	-0.059455	-0.008437	0.059348	0.998202						
04281														1.208210	-9.788261	-0.786489	0.999873	0.013503	0.008451	-0.012980	0.998169	-0.059076	-0.009233	0.058959	0.998218						
04282														1.235515	-9.835996	-0.468421	0.999843	0.015045	0.009378	-0.014463	0.998136	-0.059293	-0.010252	0.059148	0.998197						
04283														1.004433	-9.838729	-0.187180	0.999765	0.019225	0.010009	-0.018594	0.998040	-0.059749	-0.011138	0.059549	0.998163						
04284														0.977510	-9.725441	-0.446382	0.999644	0.024579	0.010370	-0.023917	0.997925	-0.059777	-0.011818	0.059508	0.998158						
04285														1.336692	-9.695961	-0.833909	0.999586	0.026864	0.010296	-0.026206	0.997886	-0.059476	-0.011872	0.059182	0.998177						
04286														1.180099	-9.581869	-0.649563	0.999559	0.027728	0.010667	-0.027053	0.997895	-0.058943	-0.012279	0.058628	0.998204						
04287														0.936920	-9.583083	-0.562323	0.999416	0.032524	0.010484	-0.031850	0.997746	-0.059056	-0.012381	0.058688	0.998200						
04288														1.212029	-9.674021	-0.481469	0.999342	0.034767	0.010361	-0.034099	0.997682	-0.058890	-0.012385	0.058497	0.998211						
04289														1.089480	-9.783566	-0.649115	0.999320	0.035371	0.010427	-0.034712	0.997727	-0.057761	-0.012447	0.057359	0.998276						
04290														0.986764	-9.671582	-0.484198	0.999248	0.037322	0.010532	-0.036671	0.997735	-0.056396	-0.012613	0.055968	0.998353						
04291														1.129679	-9.707365	-0.463776	0.999156	0.039672	0.010615	-0.039021	0.997682	-0.055742	-0.012802	0.055281	0.998389						
04292														1.185874	-9.688578	-0.613142	0.999120	0.040480	0.011024	-0.039818	0.997703	-0.054805	-0.013217	0.054317	0.998436						
04293														1.052435	-9.690941	-0.499733	0.999059	0.041880	0.011309	-0.041207	0.997674	-0.054296	-0.013556	0.053779	0.998461						
04294														1.205328	-9.725911	-0.587815	0.998953	0.044168	0.011922	-0.043455	0.997565	-0.054546	-0.014303	0.053971	0.998440						
04295														1.256287	-9.605203	-0.554438	0.998882	0.045501	0.012817	-0.044730	0.997476	-0.055138	-0.015293	0.054503	0.998397						
04296														0.951251	-9.521261	-0.537492	0.998821	0.046681	0.013333	-0.045877	0.997414	-0.055331	-0.015882	0.054654	0.998379						
04297														0.949977	-9.670059	-0.494794	0.998750	0.048148	0.013420	-0.047333	0.997333	-0.055564	-0.016060	0.054860	0.998365						
04298														1.167795	-9.818773	-0.488253	0.998682	0.049640	0.013062	-0.048840	0.997250	-0.055736	-0.015793	0.055024	0.998360						
04299														1.072221	-9.735861	-0.454426	0.998677	0.049851	0.012593	-0.049075	0.997234	-0.055827	-0.015341	0.055135	0.998361						
04300														0.975398	-9.725557	-0.559960	0.998671	0.050052	0.012254	-0.049293	0.997221	-0.055866	-0.015016	0.055188	0.998363						
04301														1.030811	-9.677530	-0.433945	0.998698	0.049604	0.011941	-0.048863	0.997236	-0.055967	-0.014685	0.055310	0.998361						
04302														0.916564	-9.675156	-0.341003	0.998731	0.049077	0.011339	-0.048364	0.997238	-0.056365	-0.014074	0.055745	0.998346						
04303														0.931471	-9.645240	-0.476726	0.998728	0.049309	0.010569	-0.048635	0.997212	-0.056602	-0.013330	0.056016	0.998341						
04304														1.068338	-9.639462	-0.362973	0.998687	0.050341	0.009472	-0.049722	0.997135	-0.057006	-0.012314	0.056460	0.998329						
04305														1.052592	-9.643243	-0.394899	0.998614	0.052008	0.008101	-0.051456	0.997007	-0.057700	-0.011078	0.057203	0.998301						
04306														1.040673	-9.659556	-0.535350	0.998596	0.052549	0.006643	-0.052069	0.996912	-0.058790	-0.009712	0.058362	0.998248						
04307														1.159331	-9.812854	-0.583579	0.998553	0.053477	0.005582	-0.053043	0.996755	-0.060544	-0.008801	0.060160	0.998150						
04308														1.137805	-9.860275	-0.530601	0.998533	0.053915	0.004905	-0.053505	0.996620	-0.062329	-0.008249	0.061975	0.998044						
04309														1.049875	-9.840638	-0.518092	0.998528	0.054058	0.004460	-0.053668	0.996546	-0.063363	-0.007870	0.063030	0.997981						
04310														1.045714	-9.693896	-0.595296	0.998502	0.054592	0.003775	-0.054241	0.996485	-0.063837	-0.007246	0.063537	0.997953						
04311														1.106992	-9.623726	-0.686739	0.998479	0.055024	0.003388	-0.054694	0.996440	-0.064161	-0.006906	0.063878	0.997934						
04312														1.177395	-9.756755	-0.619929	0.998469	0.055214	0.003214	-0.054891	0.996395	-0.064677	-0.006774	0.064402	0.997901						
04313														1.091404	-9.775815	-0.628551	0.998436	0.055818	0.003220	-0.055491	0.996341	-0.065006	-0.006837	0.064726	0.997880						
04314														0.988918	-9.684564	-0.594889	0.998374	0.056923	0.003183	-0.056593	0.996249	-0.065465	-0.006897	0.065178	0.997850						
04315														1.115933	-9.721402	-0.638011	0.998322	0.057825	0.003035	-0.057500	0.996170	-0.065876	-0.006833	0.065591	0.997823						
04316														1.109307	-9.748954	-0.678964	0.998302	0.058192	0.002767	-0.057883	0.996140	-0.065989	-0.006596	0.065717	0.997817						
04317														1.087289	-9.690220	-0.673622	0.998291	0.058376	0.002567	-0.058080	0.996134	-0.065909	-0.006405	0.065647	0.997822						
04318														1.160838	-9.695554	-0.713492	0.998289	0.058410	0.002663	-0.058107	0.996126	-0.066009	-0.006508	0.065742	0.997815						
04319														1.060212	-9.658939	-0.658684	0.998302	0.058183	0.002644	-0.057880	0.996121	-0.066284	-0.006491	0.066019	0.997797						
04320														1.010152	-9.719689	-0.773263	0.998294	0.058337	0.002599	-0.058035	0.996095	-0.066539	-0.006470	0.066274	0.997780						
04321														1.180849	-9.706055	-0.777911	0.998296	0.058304	0.002518	-0.058005	0.996073	-0.066884	-0.006408	0.066624	0.997758						
04322														1.230299	-9.603617	-0.757282	0.998353	0.057309	0.002537	-0.057008	0.996092	-0.067457	-0.006393	0.067201	0.997719						
04323														1.047616	-9.593336	-0.551953	0.998373	0.056979	0.002160	-0.056697	0.996039	-0.068493	-0.006054	0.068260	0.997649						
04324														1.045491	-9.752993	-0.614315	0.998364	0.057150	0.001619	-0.056895	0.995907	-0.070225	-0.005626	0.070018	0.997530						
04325														1.329886	-9.859226	-0.594094	0.998419	0.056204	0.001168	-0.055973	0.995819	-0.072194	-0.005221	0.072014	0.997390						
04326														1.171342	-9.617291	-0.443337	0.998350	0.057410	0.001338	-0.057147	0.995531	-0.075175	-0.005648	0.074975	0.997169						
04327														1.056401	-9.562008	-0.440573	0.998074	0.062008	0.001520	-0.061693	0.994945	-0.079235	-0.006425	0.078989	0.996855						
04328														1.123532	-9.598816	-0.546264	0.997635	0.068718	0.001333	-0.068366	0.994145	-0.083677	-0.007076	0.083388	0.996492						
04329														1.319998	-9.632146	-0.512140	0.997005	0.077341	0.000142	-0.077027	0.993121	-0.088185	-0.006962	0.087910	0.996104						
04330														1.384860	-9.826543	-0.586847	0.996095	0.088291	-0.000616	-0.087968	0.991804	-0.092660	-0.007570	0.092352	0.995698						
04331														1.586131	-9.953907	-1.063161	0.995333	0.096497	-0.000235	-0.096075	0.990749	-0.095845	-0.009016	0.095420	0.995396						
04332														1.589988	-9.803153	-1.032217	0.994708	0.102744	-0.000159	-0.102267	0.989936	-0.097818	-0.009893	0.097317	0.995204						
04333														1.330379	-9.597618	-0.945317	0.993992	0.109451	-0.000603	-0.108970	0.989076	-0.099268	-0.010269	0.098737	0.995061						
04334														1.148720	-9.637453	-1.002300	0.993207	0.116361	-0.000388	-0.115809	0.988158	-0.100662	-0.011330	0.100023	0.994921						
04335														1.241519	-9.599978	-1.090977	0.992569	0.121680	0.000267	-0.121031	0.987499	-0.100977	-0.012550	0.100194	0.994889						
04336														1.190219	-9.510310	-0.875902	0.992210	0.124570	0.001332	-0.123808	0.987210	-0.100442	-0.013827	0.099495	0.994942						
04337														0.944328	-9.467529	-0.778668	0.992006	0.126152	0.002977	-0.125217	0.987025	-0.100506	-0.015617	0.099330	0.994932						
04338														0.620606	-9.800507	-1.306483	0.991616	0.129132	0.004761	-0.127981	0.986534	-0.101837	-0.017847	0.100373	0.994790						
04339														0.815271	-10.272733	-1.839089	0.990816	0.135139	0.004600	-0.133945	0.985578	-0.103416	-0.018509	0.101850	0.994628						
04340														1.386830	-10.116943	-2.228574	0.989996	0.141033	0.004143	-0.139831	0.984636	-0.104586	-0.018829	0.102960	0.994507						
04341														1.602552	-9.795744	-1.914017	0.989708	0.143045	0.003953	-0.141823	0.984187	-0.106124	-0.019071	0.104471	0.994345						
04342														1.286795	-9.330116	-1.052017	0.989715	0.142986	0.004330	-0.141682	0.983965	-0.108344	-0.019752	0.106616	0.994104						
04343														0.668255	-9.176362	-0.859135	0.990019	0.140768	0.006874	-0.139101	0.983815	-0.112958	-0.022664	0.110874	0.993576						
04344														0.481437	-9.331852	-0.279566	0.989508	0.144254	0.008059	-0.142338	0.982896	-0.116858	-0.024778	0.114485	0.993116						
04345														0.238529	-9.096997	-0.242227	0.987920	0.154749	0.008225	-0.152645	0.980896	-0.120591	-0.026729	0.117879	0.992668						
04346														0.664169	-9.117901	-0.583328	0.985284	0.170773	0.007207	-0.168561	0.977783	-0.124612	-0.028327	0.121564	0.992179						
04347														0.926622	-9.711396	-0.456981	0.981217	0.192819	0.005795	-0.190505	0.973292	-0.128100	-0.030340	0.124590	0.991744						
04348														1.168841	-10.327799	-0.092377	0.974692	0.223524	0.003588	-0.221243	0.966799	-0.127874	-0.032051	0.123844	0.991784						
04349														1.030826	-10.867119	-0.034994	0.966352	0.257218	0.001596	-0.255037	0.958929	-0.124141	-0.033462	0.119557	0.992263						
04350														0.800623	-10.515393	-0.432515	0.956382	0.292113	-0.001935	-0.290285	0.949614	-0.118181	-0.032685	0.113588	0.992990						
04351														1.698055	-10.016302	-0.813690	0.944265	0.329139	-0.005569	-0.327698	0.938256	-0.110859	-0.031263	0.106505	0.993821						
04352														1.889881	-9.928698	-0.900642	0.932672	0.360686	-0.005314	-0.359312	0.927616	-0.102091	-0.031894	0.097126	0.994761						
04353														1.336763	-9.822089	-0.715286	0.921659	0.387994	-0.002336	-0.386591	0.917779	-0.090713	-0.033052	0.084510	0.995874						
04354														0.641003	-9.243327	-0.768780	0.910310	0.413928	-0.000122	-0.412661	0.907501	-0.078447	-0.032361	0.071461	0.996918						
04355														1.466644	-9.062091	-0.796727	0.898597	0.438746	0.005000	-0.437519	0.896829	-0.065381	-0.033170	0.056563	0.997848						
04356														1.684064	-8.992593	-0.644387	0.890758	0.454288	0.013157	-0.453208	0.890058	-0.048980	-0.033962	0.037666	0.998713						
04357														0.706990	-8.690756	-0.468214	0.886099	0.462923	0.023052	-0.462181	0.886235	-0.031256	-0.034899	0.017042	0.999246						
04358														0.296838	-9.079801	-0.435552	0.881186	0.471441	0.035425	-0.471249	0.881887	-0.014121	-0.037899	-0.004250	0.999273						
04359														0.627835	-10.580766	0.132402	0.876659	0.478750	0.047624	-0.479439	0.877568	0.003542	-0.040097	-0.025938	0.998859						
04360														0.969807	-11.457545	0.782663	0.874806	0.480984	0.058040	-0.482913	0.875316	0.024849	-0.038851	-0.049766	0.998005						
04361														1.088639	-11.771845	0.732057	0.875548	0.478740	0.064998	-0.481990	0.874782	0.049419	-0.033200	-0.074597	0.996661						
04362														1.178719	-11.151172	0.692485	0.875875	0.477562	0.069122	-0.481899	0.873064	0.074378	-0.024828	-0.098456	0.994832						
04363														1.256073	-9.756642	0.832413	0.875831	0.477219	0.071981	-0.482300	0.870874	0.094680	-0.017503	-0.117641	0.992902						
04364														0.894876	-8.385477	0.696272	0.875435	0.477424	0.075370	-0.483131	0.868907	0.107634	-0.014103	-0.130640	0.991330						
04365														0.644407	-7.712759	0.585378	0.873618	0.479804	0.081114	-0.486339	0.866494	0.112524	-0.016295	-0.137752	0.990333						
04366														0.303438	-7.887136	0.477483	0.872434	0.480941	0.086917	-0.488290	0.865311	0.113182	-0.020776	-0.141184	0.989765						
04367														0.137932	-8.097121	0.564448	0.873320	0.478627	0.090709	-0.486520	0.866382	0.112604	-0.024694	-0.142472	0.989491						
04368														0.144568	-8.312192	0.725603	0.877221	0.471045	0.092741	-0.479200	0.870850	0.109490	-0.029189	-0.140488	0.989652						
04369														0.013620	-8.931620	0.698941	0.883679	0.458889	0.092376	-0.466899	0.878181	0.103937	-0.033427	-0.134977	0.990285						
04370														0.189627	-9.534386	-0.048935	0.891505	0.443866	0.090570	-0.451578	0.886635	0.099781	-0.036013	-0.129854	0.990879						
04371														1.051103	-9.663315	-0.233320	0.900147	0.426224	0.089822	-0.433725	0.896077	0.094485	-0.040215	-0.124008	0.991466						
04372														2.052610	-10.572970	0.373810	0.910016	0.404386	0.091344	-0.411578	0.907679	0.081996	-0.049753	-0.112213	0.992438						
04373														2.919098	-11.607404	-0.163251	0.921761	0.376923	0.091028	-0.383264	0.921257	0.066291	-0.058874	-0.095992	0.993639						
04374														2.569451	-10.322799	-0.770037	0.933517	0.347565	0.088004	-0.352650	0.934393	0.050478	-0.064686	-0.078156	0.994840						
04375														1.192105	-11.048538	-0.639869	0.942021	0.323825	0.087947	-0.327023	0.944702	0.024380	-0.075189	-0.051728	0.995827						
04376														1.251353	-12.251406	-1.185544	0.946354	0.311365	0.086408	-0.312665	0.949862	0.001604	-0.081576	-0.028535	0.996259						
04377														3.064871	-10.866748	-1.396535	0.951971	0.295769	0.079197	-0.295559	0.955213	-0.014635	-0.079978	-0.009476	0.996752						
04378														4.233067	-9.441474	-1.821730	0.962173	0.262945	0.071296	-0.261230	0.964727	-0.032566	-0.077345	0.012709	0.996923						
04379														3.715735	-8.824950	-1.935908	0.974104	0.215994	0.066835	-0.212664	0.975657	-0.053550	-0.076774	0.037950	0.996326						
04380														3.003036	-9.123959	-2.095717	0.983942	0.165969	0.065663	-0.160566	0.983741	-0.080447	-0.077947	0.068612	0.994594						
04381														2.844206	-9.855329	-2.284236	0.990467	0.119990	0.067658	-0.112001	0.987427	-0.111555	-0.080193	0.102913	0.991452						
04382														2.865373	-10.604024	-1.731862	0.994017	0.079889	0.074481	-0.068642	0.987348	-0.142944	-0.084958	0.136976	0.986924						
04383														3.066117	-10.535964	-1.662159	0.995294	0.045401	0.085607	-0.030116	0.984629	-0.172045	-0.092102	0.168657	0.981362						
04384														3.903101	-10.192815	-2.149326	0.994705	0.012688	0.101985	0.007841	0.980089	-0.198405	-0.102472	0.198154	0.974800						
04385														4.250149	-9.653992	-1.603083	0.991813	-0.023468	0.125525	0.050784	0.974383	-0.219086	-0.117168	0.223667	0.967598						
04386														3.170348	-9.093498	-0.732226	0.986751	-0.055396	0.152491	0.090699	0.967663	-0.235378	-0.134521	0.246090	0.959867						
04387														2.055065	-8.953309	-0.023609	0.980498	-0.080950	0.179085	0.125231	0.959622	-0.251877	-0.151464	0.269392	0.951045						
04388														1.424790	-8.868926	0.542726	0.974238	-0.100351	0.201967	0.153079	0.951896	-0.265444	-0.165614	0.289522	0.942735						
04389														1.466649	-8.351991	1.498085	0.969238	-0.113058	0.218621	0.172859	0.945002	-0.277653	-0.175206	0.306903	0.935475						
04390														1.469190	-8.098334	1.800729	0.965599	-0.122939	0.229139	0.187999	0.938834	-0.288526	-0.179653	0.321679	0.929649						
04391														1.805238	-8.236323	1.608323	0.962959	-0.132330	0.234944	0.200294	0.934375	-0.294662	-0.180534	0.330805	0.926270						
04392														2.163797	-8.269922	1.153095	0.962089	-0.137830	0.235345	0.206137	0.932500	-0.296566	-0.178584	0.333836	0.925560						
04393														2.095243	-8.418781	0.410318	0.963705	-0.136293	0.229559	0.202432	0.933649	-0.295500	-0.174054	0.331244	0.927352						
04394														1.916970	-8.372129	0.144545	0.967700	-0.126578	0.218024	0.188927	0.936720	-0.294724	-0.166922	0.326395	0.930378						
04395														2.842809	-8.214356	-0.746283	0.973336	-0.108646	0.202020	0.166203	0.941030	-0.294686	-0.158091	0.320405	0.933996						
04396														3.274760	-8.747424	-1.460262	0.978727	-0.087012	0.185804	0.139764	0.945742	-0.293321	-0.150200	0.313050	0.937784						
04397														2.393341	-10.900326	-1.858781	0.983820	-0.059942	0.168834	0.107871	0.950597	-0.291082	-0.143045	0.304584	0.941683						
04398														2.038845	-12.985138	-2.278524	0.988896	-0.023055	0.146811	0.064687	0.956176	-0.285559	-0.133794	0.291885	0.947049						
04399														2.514773	-12.446250	-2.391529	0.992673	0.018599	0.119393	0.014659	0.962250	-0.271774	-0.119941	0.271533	0.954926						
04400														2.478881	-10.343724	-2.657843	0.993773	0.059959	0.093911	-0.034624	0.967314	-0.251207	-0.105904	0.246392	0.963367						
04401														1.710241	-8.949831	-2.345079	0.992410	0.097076	0.075488	-0.077528	0.970408	-0.228687	-0.095454	0.221099	0.970569						
04402														0.579477	-9.062099	-2.069868	0.988735	0.136058	0.062383	-0.120542	0.970887	-0.206998	-0.088730	0.197146	0.976351						
04403														-0.199285	-10.051668	-2.212715	0.982153	0.180658	0.052323	-0.168204	0.968152	-0.185445	-0.084158	0.173335	0.981261						
04404														-0.431803	-11.049853	-2.241511	0.971824	0.231489	0.044395	-0.221660	0.961599	-0.161843	-0.080155	0.147442	0.985817						
04405														0.263425	-11.921633	-2.116045	0.958021	0.284162	0.038052	-0.276878	0.951460	-0.134395	-0.074395	0.118217	0.990197						
04406														1.464871	-11.741615	-2.036283	0.942876	0.331262	0.035365	-0.326351	0.939758	-0.101732	-0.066935	0.084380	0.994183						
04407														2.072097	-11.281981	-1.909445	0.930821	0.363252	0.040245	-0.360237	0.930477	-0.066643	-0.061656	0.047535	0.996965						
04408														1.647401	-10.562735	-1.878168	0.921735	0.384680	0.049262	-0.383472	0.922985	-0.032352	-0.057913	0.010929	0.998262						
04409														0.623509	-9.765788	-1.473452	0.915930	0.396951	0.059171	-0.397633	0.917545	-0.000274	-0.054401	-0.023277	0.998248						
04410														0.066267	-9.493358	-1.232706	0.908606	0.411523	0.071303	-0.414078	0.909895	0.025112	-0.054544	-0.052341	0.997139						
04411														0.836485	-9.342554	-0.750402	0.899785	0.427770	0.086022	-0.432559	0.900371	0.047172	-0.057273	-0.079654	0.995176						
04412														1.238951	-9.315389	-0.394461	0.893029	0.438273	0.102055	-0.445687	0.892746	0.066093	-0.062142	-0.104508	0.992581						
04413														1.335933	-9.276365	-0.253440	0.889496	0.441552	0.117593	-0.452011	0.887967	0.084855	-0.066951	-0.128632	0.989430						
04414														0.904797	-9.137929	-0.822072	0.887666	0.441362	0.131336	-0.455178	0.884174	0.105117	-0.069729	-0.153090	0.985749						
04415														0.808570	-8.162711	-0.602036	0.886442	0.440462	0.142173	-0.457528	0.880305	0.125421	-0.069912	-0.176227	0.981864						
04416														0.888162	-8.455195	-0.128149	0.888491	0.433794	0.149687	-0.453403	0.880155	0.140546	-0.070780	-0.192743	0.978693						
04417														0.774553	-8.850510	0.095067	0.893411	0.422087	0.153816	-0.443824	0.882298	0.156750	-0.069550	-0.208309	0.975587						
04418														0.897294	-8.596158	0.228602	0.898793	0.410109	0.154862	-0.433026	0.885596	0.167954	-0.068266	-0.218015	0.973555						
04419														1.183909	-8.268719	0.134476	0.903543	0.400476	0.152412	-0.423198	0.889778	0.170876	-0.067181	-0.218895	0.973433						
04420														1.477302	-7.800900	0.406384	0.908750	0.390080	0.148359	-0.411777	0.895920	0.166635	-0.067917	-0.212521	0.974793						
04421														1.877699	-7.691569	0.481883	0.914359	0.377843	0.145543	-0.398380	0.903766	0.156525	-0.072395	-0.201101	0.976892						
04422														2.062012	-8.058966	0.600595	0.920271	0.363632	0.144476	-0.382853	0.913043	0.140628	-0.080776	-0.184729	0.979464						
04423														1.977245	-8.423581	0.800722	0.927966	0.343941	0.143469	-0.361403	0.924488	0.121282	-0.090922	-0.164396	0.982195						
04424														1.843932	-9.333190	1.255315	0.938219	0.315205	0.142793	-0.330253	0.938844	0.097494	-0.103330	-0.138628	0.984939						
04425														2.065488	-12.297038	1.048347	0.949312	0.279818	0.143209	-0.291409	0.954234	0.067221	-0.117845	-0.105546	0.987407						
04426														2.365106	-11.881688	-0.597908	0.957890	0.252025	0.137586	-0.260208	0.964511	0.044840	-0.121403	-0.078752	0.989474						
04427														2.072561	-10.858282	-0.452602	0.963543	0.232931	0.131637	-0.237579	0.971151	0.020561	-0.123050	-0.051086	0.991085						
04428														2.350447	-11.128992	-1.125916	0.966103	0.225684	0.125344	-0.227547	0.973767	0.000568	-0.121927	-0.029070	0.992113						
04429														4.188485	-9.757334	-1.368031	0.968876	0.218720	0.115935	-0.218753	0.975699	-0.012603	-0.115874	-0.013150	0.993177						
04430														4.781356	-9.456289	-0.747660	0.975020	0.193134	0.109705	-0.191312	0.981158	-0.027001	-0.112853	0.005338	0.993597						
04431														2.692240	-10.660043	-0.638203	0.982850	0.150246	0.106916	-0.146754	0.988370	-0.039860	-0.111662	0.023486	0.993469						
04432														1.545425	-10.442651	-0.636912	0.987645	0.118414	0.102642	-0.113248	0.992055	-0.054796	-0.108315	0.042495	0.993208						
04433														2.216591	-10.310595	-1.062039	0.990119	0.099645	0.098665	-0.092333	0.992816	-0.076094	-0.105538	0.066232	0.992207						
04434														3.536339	-10.277630	-1.013334	0.991888	0.084304	0.095141	-0.074651	0.992099	-0.100826	-0.102889	0.092906	0.990345						
04435														3.702067	-9.643479	-1.747835	0.993574	0.065770	0.092111	-0.054003	0.990702	-0.124876	-0.099467	0.119099	0.987888						
04436														3.562207	-8.964842	-2.456189	0.994746	0.044049	0.092415	-0.030041	0.988556	-0.147830	-0.097869	0.144277	0.984686						
04437														3.654272	-8.588641	-2.634450	0.995020	0.015617	0.098443	0.001450	0.985277	-0.170959	-0.099663	0.170250	0.980348						
04438														3.967139	-8.834532	-2.611490	0.993686	-0.018994	0.110580	0.040174	0.980455	-0.192600	-0.104761	0.195826	0.975027						
04439														4.047583	-8.998261	-1.965391	0.989833	-0.060806	0.128585	0.086939	0.974130	-0.208596	-0.112575	0.217655	0.969512						
04440														3.603827	-8.617327	-1.275767	0.982456	-0.108161	0.151926	0.140315	0.965328	-0.220123	-0.122849	0.237579	0.963569						
04441														2.331451	-8.580402	-0.451565	0.971628	-0.155231	0.178443	0.194549	0.953603	-0.229766	-0.134497	0.257963	0.956747						
04442														0.853545	-9.343102	0.845112	0.960297	-0.190789	0.203541	0.237809	0.941282	-0.239657	-0.145866	0.278546	0.949281						
04443														0.890524	-9.866296	1.754549	0.953342	-0.206984	0.219766	0.260184	0.932530	-0.250383	-0.153114	0.295880	0.942874						
04444														1.884997	-9.794823	2.148730	0.950636	-0.212090	0.226516	0.268378	0.928382	-0.257061	-0.155773	0.305164	0.939473						
04445														2.310184	-9.469987	2.052183	0.950179	-0.213091	0.227492	0.269775	0.927792	-0.257726	-0.156146	0.306258	0.939055						
04446														2.309524	-9.029544	1.014119	0.951087	-0.211900	0.224793	0.267095	0.929672	-0.253715	-0.155221	0.301346	0.940796						
04447														2.554080	-8.750258	0.402035	0.953869	-0.206457	0.217968	0.258656	0.933720	-0.247517	-0.152419	0.292478	0.944047						
04448														2.746193	-8.526874	0.423555	0.957929	-0.197694	0.208060	0.245968	0.939045	-0.240199	-0.147892	0.281269	0.948164						
04449														2.563207	-8.553105	0.263409	0.962890	-0.186000	0.195570	0.229770	0.945081	-0.232440	-0.141595	0.268750	0.952746						
04450														2.129047	-9.070258	0.126346	0.969392	-0.167281	0.179713	0.206027	0.952363	-0.224849	-0.133539	0.254993	0.957677						
04451														1.220409	-10.192854	-0.090837	0.977132	-0.137975	0.161788	0.171807	0.960613	-0.218415	-0.125280	0.241216	0.962351						
04452														0.741041	-11.083763	-0.635856	0.985442	-0.095447	0.140691	0.124232	0.969203	-0.212632	-0.116063	0.227015	0.966951						
04453														0.558854	-11.315749	-1.663869	0.992506	-0.037141	0.116411	0.060503	0.977076	-0.204111	-0.106162	0.209625	0.972002						
04454														0.596994	-10.855674	-2.311658	0.995115	0.029883	0.094092	-0.011504	0.981694	-0.190117	-0.098051	0.188106	0.977242						
04455														0.607401	-10.774365	-2.850303	0.992583	0.094528	0.076440	-0.080276	0.981855	-0.171803	-0.091293	0.164392	0.982161						
04456														0.514339	-11.821725	-3.099305	0.985798	0.155299	0.063919	-0.144474	0.978276	-0.148670	-0.085618	0.137324	0.986819						
04457														1.077500	-13.529582	-2.884968	0.976281	0.209439	0.054865	-0.201872	0.972164	-0.118933	-0.078247	0.105037	0.991385						
04458														2.067743	-13.446919	-2.858332	0.965800	0.255015	0.046878	-0.250730	0.964599	-0.081751	-0.066066	0.067202	0.995550						
04459														2.415352	-11.334896	-3.235718	0.956770	0.287852	0.041612	-0.286152	0.957246	-0.042381	-0.052032	0.028642	0.998235						
04460														1.378816	-9.930306	-2.659277	0.949633	0.310792	0.040062	-0.310727	0.950465	-0.008004	-0.040565	-0.004848	0.999165						
04461														0.541992	-9.232631	-2.047129	0.942208	0.332450	0.041473	-0.333369	0.942635	0.017439	-0.033296	-0.030257	0.998987						
04462														0.504405	-8.837541	-1.633475	0.935721	0.349722	0.046057	-0.351415	0.935535	0.035795	-0.030570	-0.049679	0.998297						
04463														0.786693	-8.343392	-0.976017	0.927876	0.368698	0.055743	-0.371395	0.927140	0.049766	-0.033333	-0.066879	0.997204						
04464														1.116117	-8.400777	-0.586662	0.923440	0.377850	0.066999	-0.381744	0.922319	0.059994	-0.039126	-0.080978	0.995948						
04465														0.969765	-8.198463	-0.186794	0.923088	0.376417	0.078852	-0.381816	0.921538	0.070605	-0.046088	-0.095282	0.994383						
04466														0.535911	-8.245175	0.246000	0.924144	0.371009	0.091160	-0.378058	0.922464	0.078305	-0.055040	-0.106828	0.992753						
04467														0.149081	-8.323235	0.421504	0.924531	0.366711	0.103758	-0.375478	0.923088	0.083214	-0.065263	-0.115893	0.991115						
04468														0.057111	-8.739368	0.038288	0.923524	0.365812	0.115260	-0.376189	0.922509	0.086370	-0.074733	-0.123124	0.989573						
04469														0.358889	-8.802487	0.622746	0.921071	0.368603	0.125540	-0.380352	0.920718	0.087236	-0.083432	-0.128100	0.988246						
04470														1.044817	-9.173261	0.763204	0.919017	0.370178	0.135557	-0.383108	0.919714	0.085758	-0.092928	-0.130746	0.987051						
04471														1.333632	-9.255287	-0.453118	0.917735	0.370834	0.142282	-0.384564	0.919200	0.084740	-0.099361	-0.132486	0.986192						
04472														1.395375	-9.451298	-0.867574	0.918327	0.368429	0.144692	-0.382403	0.920170	0.083994	-0.102195	-0.132464	0.985905						
04473														1.548384	-9.642667	-0.484659	0.920722	0.362763	0.143784	-0.376481	0.922715	0.082818	-0.102628	-0.130385	0.986138						
04474														1.737875	-8.951878	-0.184285	0.925215	0.352237	0.141090	-0.365465	0.927233	0.081700	-0.102045	-0.127154	0.986620						
04475														1.838328	-8.264379	-0.491422	0.932143	0.335520	0.136147	-0.347699	0.934363	0.077913	-0.101069	-0.119964	0.987620						
04476														1.841590	-8.995827	0.192105	0.940740	0.312875	0.130837	-0.323404	0.943784	0.068426	-0.102073	-0.106684	0.989040						
04477														1.755765	-10.516913	1.120082	0.949826	0.286081	0.126443	-0.294628	0.954048	0.054655	-0.104997	-0.089167	0.990467						
04478														1.790395	-11.012462	1.619843	0.958229	0.259389	0.120475	-0.266067	0.963002	0.042835	-0.104906	-0.073100	0.991792						
04479														1.525017	-9.483614	1.803678	0.964335	0.239374	0.112948	-0.244439	0.969098	0.033155	-0.101521	-0.059581	0.993048						
04480														1.145130	-9.981923	0.440548	0.966960	0.230563	0.108759	-0.233742	0.972145	0.017271	-0.101747	-0.042122	0.993918						
04481														1.825873	-10.913584	-1.598196	0.966636	0.234911	0.102139	-0.236550	0.971611	0.004069	-0.098284	-0.028095	0.994762						
04482														4.292377	-9.505619	-2.193255	0.968158	0.231535	0.095191	-0.232347	0.972629	-0.002618	-0.093192	-0.019583	0.995456						
04483														4.730868	-8.811749	-1.838503	0.973464	0.210794	0.089073	-0.210551	0.977506	-0.012215	-0.089645	-0.006863	0.995950						
04484														3.491445	-9.274521	-2.568502	0.980524	0.178123	0.082737	-0.176331	0.983917	-0.028538	-0.086490	0.013393	0.996163						
04485														2.777391	-10.111978	-2.859307	0.986631	0.142136	0.079730	-0.138185	0.988983	-0.053088	-0.086397	0.041361	0.995402						
04486														3.220045	-11.529453	-2.320703	0.990730	0.109991	0.079722	-0.103266	0.991094	-0.084082	-0.088260	0.075070	0.993265						
04487														3.879267	-11.778342	-1.841968	0.993537	0.079466	0.081047	-0.069758	0.990762	-0.116293	-0.089540	0.109888	0.989903						
04488														3.561337	-11.428874	-1.528862	0.995261	0.048358	0.084364	-0.035457	0.988319	-0.148217	-0.090546	0.144523	0.985350						
04489														3.087290	-10.708236	-0.856019	0.995760	0.019225	0.089957	-0.002997	0.984178	-0.177155	-0.091939	0.176135	0.980063						
04490														2.596407	-9.845671	-0.305451	0.995136	-0.007823	0.098203	0.027775	0.978681	-0.203497	-0.094518	0.205235	0.974138						
04491														2.364123	-9.336387	0.070955	0.993539	-0.032248	0.108816	0.056337	0.972450	-0.226200	-0.098524	0.230869	0.967984						
04492														2.244653	-8.706592	0.511549	0.990979	-0.055732	0.121877	0.084413	0.965927	-0.244662	-0.104089	0.252743	0.961918						
04493														1.712990	-8.495789	0.723950	0.987854	-0.075435	0.135846	0.108896	0.959736	-0.258938	-0.110843	0.270586	0.956293						
04494														1.551210	-8.262839	0.932607	0.985266	-0.087131	0.147169	0.124723	0.954837	-0.269688	-0.117024	0.284069	0.951635						
04495														1.910087	-8.202265	0.923904	0.983470	-0.092642	0.155577	0.133369	0.951764	-0.276330	-0.122473	0.292511	0.948387						
04496														2.219708	-8.266976	0.956035	0.982325	-0.094694	0.161463	0.137355	0.950679	-0.278106	-0.127164	0.295368	0.946883						
04497														2.172764	-8.448702	0.815862	0.981869	-0.094284	0.164452	0.137420	0.951602	-0.274899	-0.130575	0.292514	0.947305						
04498														2.094681	-8.678709	0.324584	0.982969	-0.086615	0.162079	0.128421	0.954627	-0.268690	-0.131453	0.284929	0.949492						
04499														2.161333	-8.830384	-0.090289	0.985284	-0.071948	0.155042	0.110853	0.959431	-0.259238	-0.130100	0.272610	0.953288						
04500														2.362274	-8.900232	-0.380316	0.988038	-0.052240	0.145091	0.087248	0.965174	-0.246632	-0.127154	0.256341	0.958186						
04501														2.350821	-9.237783	-0.630895	0.990462	-0.029229	0.134648	0.060104	0.971016	-0.231335	-0.123984	0.237222	0.963511						
04502														1.935165	-10.101455	-0.777578	0.992046	-0.004618	0.125790	0.031595	0.976471	-0.213323	-0.121845	0.215601	0.968850						
04503														1.205726	-11.197798	-1.026868	0.992771	0.023708	0.117660	-0.000479	0.981074	-0.193635	-0.120024	0.192179	0.973993						
04504														1.110924	-11.612532	-1.302726	0.992406	0.062413	0.105998	-0.043424	0.983993	-0.172836	-0.115088	0.166920	0.979230						
04505														1.999082	-11.163194	-1.550550	0.989835	0.107432	0.093194	-0.092471	0.984014	-0.152200	-0.108055	0.142035	0.983946						
04506														2.121225	-10.713406	-1.581271	0.985437	0.146855	0.085723	-0.134851	0.982015	-0.132141	-0.103587	0.118656	0.987517						
04507														1.430677	-10.671693	-1.950001	0.978934	0.187027	0.081913	-0.177132	0.977459	-0.114879	-0.101552	0.097949	0.989996						
04508														1.077395	-10.347031	-1.899542	0.969347	0.232580	0.079198	-0.224494	0.969415	-0.099179	-0.099842	0.078359	0.991913						
04509														0.810025	-10.082381	-1.418291	0.958001	0.275355	0.080091	-0.268811	0.959556	-0.083619	-0.099877	0.058577	0.993274						
04510														0.374452	-10.928328	-1.348547	0.945812	0.312978	0.086514	-0.307804	0.949008	-0.068121	-0.103423	0.037800	0.993919						
04511														0.701992	-11.808025	-1.903882	0.932895	0.347615	0.094184	-0.344371	0.937540	-0.049270	-0.105428	0.013529	0.994335						
04512														1.771322	-11.259119	-2.149678	0.921547	0.374717	0.101679	-0.374101	0.927029	-0.025788	-0.103923	-0.014274	0.994483						
04513														2.176261	-10.439119	-1.391098	0.913561	0.391077	0.111642	-0.393567	0.919296	0.000288	-0.102520	-0.044202	0.993748						
04514														1.884398	-9.775537	-1.068802	0.910844	0.394350	0.121862	-0.399787	0.916322	0.022910	-0.102631	-0.069586	0.992283						
04515														1.153145	-9.891361	-0.889158	0.910204	0.392585	0.131931	-0.400813	0.915201	0.041902	-0.104293	-0.091019	0.990373						
04516														0.770456	-9.271706	-0.288472	0.907863	0.394162	0.142904	-0.405253	0.912359	0.058065	-0.107493	-0.110628	0.988032						
04517														1.060063	-8.619487	-0.214322	0.903741	0.399148	0.154703	-0.412772	0.908307	0.067804	-0.113454	-0.125134	0.985632						
04518														1.653861	-8.460725	-0.101648	0.900028	0.403294	0.165238	-0.419212	0.904776	0.075114	-0.119210	-0.136875	0.983389						
04519														1.830021	-8.279930	0.044712	0.897830	0.404145	0.174837	-0.422473	0.902547	0.083214	-0.124168	-0.148576	0.981075						
04520														1.931714	-8.133719	-0.037200	0.897908	0.399713	0.184363	-0.420645	0.902564	0.091850	-0.129685	-0.160024	0.978557						
04521														1.604610	-8.058301	-0.007994	0.900403	0.390838	0.191101	-0.413932	0.904824	0.099773	-0.133918	-0.168939	0.976486						
04522														1.166777	-8.085947	0.073710	0.904333	0.379657	0.195045	-0.404203	0.908554	0.105594	-0.137119	-0.174330	0.975093						
04523														1.034083	-7.788965	0.016631	0.908305	0.369335	0.196405	-0.394452	0.912520	0.108233	-0.139249	-0.175781	0.974531						
04524														1.203635	-7.638381	-0.200679	0.912527	0.359502	0.195071	-0.384094	0.917123	0.106573	-0.140591	-0.172176	0.974982						
04525														1.283349	-7.654368	-0.029375	0.917505	0.349079	0.190600	-0.372134	0.922595	0.101657	-0.140360	-0.164199	0.976390						
04526														1.487063	-8.060520	0.486497	0.923661	0.335694	0.184823	-0.356380	0.929773	0.092283	-0.140864	-0.151105	0.978430						
04527														1.639614	-8.962966	0.498043	0.931545	0.316957	0.178218	-0.334642	0.939015	0.079158	-0.142259	-0.133378	0.980802						
04528														1.904767	-10.883768	0.724818	0.940440	0.293963	0.170757	-0.307753	0.949557	0.060253	-0.144431	-0.109215	0.983469						
04529														2.307017	-11.639212	0.055988	0.949423	0.269881	0.160497	-0.279733	0.959163	0.041903	-0.142634	-0.084680	0.986146						
04530														2.391076	-9.821852	-0.769850	0.956810	0.251534	0.145756	-0.257472	0.966010	0.023098	-0.134992	-0.059628	0.989051						
04531														3.187725	-9.936076	-1.483475	0.961399	0.241216	0.132389	-0.243424	0.969920	0.000507	-0.128284	-0.032714	0.991198						
04532														4.236892	-11.740571	-1.985725	0.965682	0.229982	0.120688	-0.229413	0.973148	-0.018783	-0.121767	-0.009549	0.992513						
04533														4.831370	-11.294259	-0.877564	0.971664	0.211311	0.105909	-0.209179	0.977386	-0.030982	-0.110061	0.007951	0.993893						
04534														4.490110	-11.107086	-1.647005	0.979291	0.179632	0.093391	-0.175991	0.983320	-0.045932	-0.100084	0.028544	0.994569						
04535														3.122625	-10.496856	-1.899566	0.985699	0.145253	0.085434	-0.140403	0.988257	-0.060296	-0.093189	0.047439	0.994518						
04536														2.526964	-10.898548	-1.593502	0.990108	0.113610	0.082340	-0.107104	0.991060	-0.079549	-0.090641	0.069943	0.993424						
04537														2.883425	-11.003374	-1.364912	0.992712	0.088298	0.082008	-0.079998	0.991816	-0.099508	-0.090123	0.092222	0.991652						
04538														3.119658	-10.086687	-1.171744	0.994700	0.060628	0.083040	-0.050350	0.991410	-0.120710	-0.089645	0.115890	0.989208						
04539														2.930277	-9.562964	-0.957993	0.995701	0.030833	0.087341	-0.018079	0.989526	-0.143215	-0.090842	0.141020	0.985830						
04540														2.811955	-9.332443	-0.489345	0.995313	-0.001296	0.096701	0.017346	0.986087	-0.165325	-0.095141	0.166227	0.981487						
04541														2.594916	-9.248499	-0.336263	0.993522	-0.033088	0.108716	0.052945	0.981275	-0.185192	-0.100553	0.189748	0.976670						
04542														2.504440	-8.955241	-0.177714	0.990453	-0.063004	0.122614	0.087121	0.975388	-0.202553	-0.106835	0.211301	0.971565						
04543														2.450198	-8.804860	0.100229	0.985995	-0.092460	0.138797	0.121423	0.968500	-0.217405	-0.114324	0.231214	0.966163						
04544														2.246581	-8.777644	0.381877	0.980821	-0.117556	0.155468	0.151618	0.961412	-0.229565	-0.122482	0.248734	0.960796						
04545														1.940979	-8.712844	0.540044	0.976007	-0.135805	0.170196	0.174574	0.955220	-0.238910	-0.130130	0.262890	0.956010						
04546														1.877945	-8.818714	0.535532	0.972935	-0.144581	0.180262	0.186956	0.950987	-0.246315	-0.135814	0.273350	0.952279						
04547														2.202546	-9.003219	0.451388	0.972093	-0.144289	0.184973	0.188678	0.949433	-0.250955	-0.139410	0.278852	0.950161						
04548														2.616199	-8.972684	0.445915	0.972576	-0.139714	0.185944	0.184586	0.950060	-0.251622	-0.141503	0.279045	0.949795						
04549														2.614466	-8.828548	0.278036	0.973959	-0.132348	0.184086	0.176464	0.952295	-0.248987	-0.142351	0.274988	0.950851						
04550														2.367430	-8.749794	0.147515	0.976481	-0.120266	0.178945	0.162532	0.955946	-0.244440	-0.141664	0.267775	0.953010						
04551														2.333844	-8.729494	0.125081	0.979924	-0.102635	0.170925	0.142268	0.960583	-0.238833	-0.139675	0.258355	0.955899						
04552														2.268392	-8.995376	-0.035862	0.983658	-0.079970	0.161314	0.116651	0.965537	-0.232662	-0.137149	0.247677	0.959086						
04553														1.854214	-9.421718	-0.341718	0.987310	-0.052130	0.150007	0.085552	0.970396	-0.225860	-0.133792	0.235827	0.962541						
04554														1.627028	-10.410413	-0.379232	0.990611	-0.014930	0.135894	0.044699	0.974759	-0.218740	-0.129198	0.222760	0.966274						
04555														1.508014	-10.920156	-0.891832	0.992381	0.029681	0.119581	-0.004174	0.978092	-0.208133	-0.123139	0.206048	0.970763						
04556														1.647370	-10.844166	-1.724447	0.991558	0.078789	0.102977	-0.057756	0.979448	-0.193252	-0.116087	0.185673	0.975730						
04557														2.072790	-10.627244	-2.072744	0.987778	0.127254	0.090010	-0.110222	0.978574	-0.173906	-0.110212	0.161860	0.980640						
04558														1.632455	-10.184110	-2.073743	0.981774	0.170789	0.083372	-0.157013	0.976059	-0.150516	-0.107082	0.134683	0.985086						
04559														0.793514	-10.474291	-2.082624	0.973301	0.214519	0.081653	-0.203279	0.970797	-0.127398	-0.106598	0.107398	0.988485						
04560														0.583584	-10.914604	-2.089797	0.962135	0.259572	0.083177	-0.250701	0.962491	-0.103727	-0.106982	0.078947	0.991122						
04561														1.148724	-11.646744	-2.170368	0.950094	0.299419	0.087575	-0.292849	0.952770	-0.080427	-0.107521	0.050767	0.992906						
04562														2.132178	-12.107530	-2.411700	0.938836	0.331086	0.094703	-0.327336	0.943411	-0.053166	-0.106947	0.018914	0.994085						
04563														2.512016	-11.174962	-2.208200	0.930196	0.352493	0.102394	-0.352055	0.935699	-0.022925	-0.103891	-0.014723	0.994480						
04564														2.185613	-9.754412	-2.024980	0.925650	0.362227	0.109378	-0.364750	0.931100	0.003303	-0.100645	-0.042953	0.993995						
04565														1.199307	-9.202979	-1.588882	0.924571	0.362466	0.117417	-0.367520	0.929707	0.023949	-0.100483	-0.065296	0.992794						
04566														0.482576	-8.847036	-1.049178	0.921152	0.366899	0.129860	-0.374610	0.926314	0.040117	-0.105572	-0.085601	0.990720						
04567														1.100026	-8.797874	-0.432303	0.915603	0.375723	0.143187	-0.386019	0.921049	0.051549	-0.112514	-0.102471	0.988352						
04568														1.518274	-8.890771	-0.072890	0.913362	0.376774	0.154308	-0.389564	0.918897	0.062191	-0.118361	-0.116916	0.986064						
04569														1.570794	-8.824478	0.073007	0.912743	0.374095	0.164174	-0.389424	0.918173	0.072852	-0.123487	-0.130429	0.983737						
04570														1.407068	-8.634506	-0.695010	0.912069	0.372467	0.171461	-0.389979	0.917156	0.082102	-0.126677	-0.141749	0.981764						
04571														1.639378	-8.845878	-0.371753	0.913065	0.367282	0.177250	-0.386563	0.917937	0.089226	-0.129933	-0.149987	0.980113						
04572														1.291490	-8.538626	-0.119148	0.915575	0.359166	0.180892	-0.379704	0.920252	0.094663	-0.132466	-0.155356	0.978937						
04573														1.051185	-8.472973	-0.510790	0.918429	0.351106	0.182242	-0.371861	0.923416	0.094989	-0.134933	-0.155009	0.978655						
04574														1.363925	-8.270298	-0.674292	0.921932	0.342622	0.180696	-0.362604	0.927440	0.091506	-0.136233	-0.149883	0.979273						
04575														1.502546	-8.038684	-0.618198	0.926942	0.331213	0.176287	-0.349416	0.933199	0.083956	-0.136704	-0.139420	0.980752						
04576														1.522801	-8.502396	-0.195357	0.933143	0.316946	0.169677	-0.332548	0.940301	0.072432	-0.136591	-0.124015	0.982834						
04577														1.503350	-9.152162	-0.119508	0.940154	0.299069	0.163304	-0.311913	0.948272	0.059076	-0.137188	-0.106477	0.984806						
04578														1.585290	-9.413363	0.243841	0.947036	0.280224	0.156836	-0.290300	0.955874	0.045054	-0.137290	-0.088197	0.986597						
04579														1.874060	-10.337083	0.629191	0.954773	0.255339	0.152351	-0.262117	0.964689	0.025862	-0.140368	-0.064626	0.987988						
04580														2.140700	-11.912471	-0.060509	0.962800	0.226693	0.147062	-0.230184	0.973122	0.006945	-0.141535	-0.040538	0.989103						
04581														2.315745	-10.503797	-0.689871	0.969728	0.202539	0.136400	-0.203431	0.979060	-0.007518	-0.135067	-0.020458	0.990625						
04582														2.255129	-10.380837	-1.154831	0.974954	0.183991	0.124950	-0.182011	0.982921	-0.027177	-0.127816	0.003754	0.991791						
04583														2.838194	-11.237186	-1.344771	0.978561	0.171768	0.113644	-0.168068	0.984904	-0.041444	-0.119047	0.021455	0.992657						
04584														4.086733	-9.931762	-0.859308	0.982838	0.153942	0.101642	-0.149538	0.987508	-0.049660	-0.108017	0.033608	0.993581						
04585														4.455194	-9.539992	-1.043730	0.988740	0.117982	0.092052	-0.112585	0.991719	-0.061794	-0.098581	0.050734	0.993835						
04586														3.170331	-10.430564	-0.837603	0.993321	0.075412	0.087325	-0.068581	0.994533	-0.078744	-0.092786	0.072229	0.993063						
04587														2.045344	-10.885725	-0.354558	0.995476	0.038376	0.086915	-0.029657	0.994598	-0.099475	-0.090263	0.096447	0.991237						
04588														2.101601	-10.511677	-0.207868	0.995997	0.011881	0.088596	-0.000874	0.992374	-0.123263	-0.089385	0.122692	0.988411						
04589														2.629491	-9.622819	-0.380177	0.995833	-0.006025	0.090996	0.019617	0.988608	-0.149228	-0.089061	0.150392	0.984607						
04590														2.869634	-8.768791	-0.618556	0.995241	-0.019837	0.095403	0.036291	0.984083	-0.173967	-0.090433	0.176602	0.980119						
04591														3.714819	-8.304999	-0.848692	0.993754	-0.036527	0.105448	0.056740	0.979043	-0.195592	-0.096094	0.200353	0.975000						
04592														4.429493	-8.836303	-1.341292	0.990655	-0.061240	0.121866	0.086124	0.973732	-0.210783	-0.105756	0.219309	0.969907						
04593														3.763227	-8.966563	-1.051250	0.985611	-0.090502	0.142760	0.120395	0.968696	-0.217102	-0.118642	0.231166	0.965653						
04594														2.937576	-8.430960	-0.424407	0.978797	-0.120301	0.165782	0.155464	0.963292	-0.218858	-0.133368	0.239991	0.961570						
04595														2.562754	-8.286123	0.091209	0.970898	-0.146691	0.189311	0.187345	0.957619	-0.218787	-0.149193	0.247887	0.957232						
04596														2.187391	-8.796063	0.637058	0.962990	-0.167552	0.211130	0.213443	0.952385	-0.217728	-0.164596	0.254734	0.952900						
04597														1.977946	-9.381745	1.189310	0.956813	-0.180197	0.228118	0.230313	0.948701	-0.216615	-0.177383	0.259799	0.949231						
04598														1.942560	-9.585895	1.671504	0.953470	-0.184935	0.238106	0.237701	0.946933	-0.216371	-0.185456	0.262901	0.946831						
04599														1.987117	-9.584939	1.538741	0.954696	-0.178225	0.238309	0.231316	0.948253	-0.217509	-0.187212	0.262779	0.946519						
04600														2.252445	-9.414516	1.095349	0.960328	-0.159252	0.228930	0.210106	0.952961	-0.218451	-0.183372	0.257884	0.948615						
04601														2.524790	-9.406831	0.652738	0.967858	-0.133269	0.213282	0.180038	0.959293	-0.217586	-0.175602	0.248991	0.952453						
04602														2.794572	-9.637752	0.219824	0.975383	-0.103459	0.194740	0.145050	0.966181	-0.213201	-0.166097	0.236200	0.957403						
04603														2.035333	-10.153983	-0.116163	0.981536	-0.073616	0.176545	0.109756	0.972669	-0.204620	-0.156657	0.220219	0.962789						
04604														0.685151	-10.875748	-0.340159	0.986898	-0.037419	0.156944	0.068060	0.978503	-0.194679	-0.146286	0.202810	0.968230						
04605														0.903734	-10.820281	-1.253657	0.990963	0.010572	0.133720	0.014531	0.982563	-0.185362	-0.133348	0.185630	0.973530						
04606														1.134836	-10.100399	-2.205859	0.991461	0.068968	0.110671	-0.049083	0.983650	-0.173272	-0.120812	0.166360	0.978636						
04607														1.053912	-9.754266	-2.525166	0.986796	0.132215	0.093555	-0.116309	0.980437	-0.158792	-0.112719	0.145814	0.982870						
04608														1.034880	-10.269830	-2.612563	0.976819	0.196894	0.084007	-0.183826	0.972629	-0.142127	-0.109691	0.123389	0.986277						
04609														1.247640	-11.437780	-2.802701	0.963076	0.256658	0.081307	-0.246012	0.961620	-0.121513	-0.109374	0.097023	0.989254						
04610														2.382365	-11.981665	-2.958709	0.948876	0.304466	0.083279	-0.296482	0.950215	-0.095858	-0.108318	0.066267	0.991905						
04611														2.988764	-11.671357	-2.730491	0.938892	0.332110	0.090467	-0.327173	0.942709	-0.065254	-0.106955	0.031668	0.993759						
04612														2.181606	-11.014491	-2.096839	0.933684	0.343850	0.100007	-0.342175	0.939021	-0.033995	-0.105598	-0.002479	0.994406						
04613														1.026492	-10.264736	-1.873345	0.928908	0.353740	0.109531	-0.355109	0.934796	-0.007405	-0.105009	-0.032017	0.993956						
04614														0.983635	-9.792266	-1.931124	0.922521	0.366334	0.121470	-0.370600	0.928690	0.013795	-0.107754	-0.057743	0.992499						
04615														1.557413	-8.650987	-0.845488	0.912935	0.384328	0.137265	-0.392104	0.919296	0.033907	-0.113156	-0.084777	0.989954						
04616														2.122557	-8.635949	-0.018001	0.907891	0.389961	0.153829	-0.401583	0.914330	0.052267	-0.120269	-0.109227	0.986714						
04617														1.542352	-8.566993	0.113293	0.907628	0.384374	0.168727	-0.400352	0.913479	0.072624	-0.126214	-0.133466	0.982984						
04618														1.109132	-8.337646	-0.001798	0.906096	0.381522	0.182842	-0.401969	0.911140	0.090800	-0.131952	-0.155770	0.978940						
04619														1.230728	-8.284382	-0.292826	0.904891	0.378168	0.195350	-0.402747	0.909212	0.105492	-0.137721	-0.174136	0.975043						
04620														1.138736	-8.055056	-0.302140	0.905465	0.371587	0.205078	-0.399707	0.909063	0.117638	-0.142715	-0.188488	0.971650						
04621														1.026773	-7.512702	-0.537872	0.906108	0.365992	0.212175	-0.396646	0.909385	0.125262	-0.147104	-0.197659	0.969170						
04622														1.319646	-7.338001	-0.884675	0.908080	0.359198	0.215332	-0.390628	0.911849	0.126259	-0.150998	-0.198768	0.968344						
04623														1.469243	-7.443456	-0.902923	0.912629	0.347858	0.214714	-0.378474	0.917506	0.122232	-0.154482	-0.192816	0.968998						
04624														1.488666	-8.184127	-0.794320	0.918528	0.333314	0.212621	-0.361747	0.925544	0.111836	-0.159513	-0.179640	0.970714						
04625														1.636495	-9.400428	-1.016094	0.925879	0.315093	0.208480	-0.339795	0.935704	0.094853	-0.165188	-0.158663	0.973416						
04626														2.025321	-10.485149	-1.001830	0.934248	0.294462	0.201176	-0.314102	0.946565	0.073177	-0.168878	-0.131556	0.976818						
04627														2.699140	-11.614074	-0.655048	0.943675	0.271242	0.189486	-0.284740	0.957425	0.047541	-0.168524	-0.098818	0.980732						
04628														3.408797	-11.629392	0.504851	0.953633	0.245489	0.174125	-0.252801	0.967295	0.020786	-0.163328	-0.063841	0.984504						
04629														3.387930	-10.248147	0.289805	0.963195	0.217511	0.157938	-0.219791	0.975542	-0.003100	-0.154750	-0.031728	0.987444						
04630														2.732997	-9.918596	-0.935160	0.971299	0.190470	0.142479	-0.189116	0.981683	-0.023106	-0.144270	-0.004502	0.989528						
04631														2.664996	-10.273698	-1.215030	0.977044	0.168582	0.130250	-0.164964	0.985561	-0.038169	-0.134804	0.015806	0.990746						
04632														3.649845	-10.183472	-0.932052	0.981167	0.149683	0.122089	-0.144430	0.988208	-0.050850	-0.128260	0.032259	0.991216						
04633														3.843293	-10.290921	-0.562889	0.985133	0.127209	0.115463	-0.120607	0.990731	-0.062492	-0.122342	0.047638	0.991344						
04634														3.456681	-9.899600	-1.843861	0.988722	0.102174	0.109491	-0.094239	0.992693	-0.075364	-0.116391	0.064196	0.991127						
04635														3.308940	-10.511957	-1.176653	0.991177	0.077206	0.107740	-0.067154	0.993305	-0.094000	-0.114276	0.085936	0.989725						
04636														3.224303	-11.136009	-0.712561	0.992725	0.051955	0.108615	-0.039553	0.992764	-0.113378	-0.113719	0.108257	0.987597						
04637														3.066581	-10.202430	-0.967285	0.993587	0.025725	0.110103	-0.010887	0.991016	-0.133302	-0.112543	0.131249	0.984941						
04638														2.812815	-9.501408	-0.843475	0.993580	0.000397	0.113130	0.017111	0.987961	-0.153752	-0.111829	0.154701	0.981612						
04639														2.898827	-9.105570	-0.562890	0.992495	-0.025277	0.119644	0.045965	0.983766	-0.173467	-0.113317	0.177664	0.977545						
04640														3.130253	-9.054511	-0.595198	0.990301	-0.049853	0.129687	0.074269	0.978804	-0.190859	-0.117424	0.198640	0.973013						
04641														3.077122	-8.857230	-0.442231	0.986953	-0.074588	0.142690	0.103133	0.973416	-0.204513	-0.123642	0.216561	0.968408						
04642														2.925960	-8.450351	-0.262448	0.982649	-0.098063	0.157432	0.131055	0.967732	-0.215219	-0.131248	0.232117	0.963793						
04643														2.598957	-8.198083	-0.040179	0.978043	-0.117405	0.172185	0.154866	0.962321	-0.223507	-0.139456	0.245265	0.959373						
04644														2.292183	-8.091341	0.013134	0.973922	-0.131006	0.185239	0.172724	0.957513	-0.230945	-0.147114	0.256918	0.955171						
04645														2.217711	-8.354708	0.341408	0.971104	-0.137622	0.194978	0.182829	0.954115	-0.237146	-0.153395	0.265941	0.951707						
04646														2.196555	-8.458719	1.034882	0.969736	-0.139178	0.200602	0.186558	0.952411	-0.241059	-0.157505	0.271188	0.949552						
04647														1.854635	-8.748576	1.249699	0.969630	-0.137655	0.202161	0.185393	0.952797	-0.240433	-0.159521	0.270610	0.949380						
04648														2.044701	-9.351974	1.407826	0.971404	-0.131015	0.198012	0.176930	0.955579	-0.235720	-0.158334	0.264014	0.951434						
04649														2.465523	-10.032242	1.265587	0.974883	-0.119529	0.187926	0.161641	0.960198	-0.227799	-0.153218	0.252454	0.955401						
04650														2.229891	-10.472290	0.898703	0.979310	-0.103283	0.174025	0.140537	0.965862	-0.217624	-0.145607	0.237579	0.960393						
04651														1.757063	-11.346896	0.326165	0.984488	-0.077243	0.157537	0.109362	0.972270	-0.206714	-0.137201	0.220736	0.965635						
04652														1.240505	-11.809550	-0.503062	0.989719	-0.037868	0.137924	0.064528	0.978818	-0.194296	-0.127645	0.201198	0.971198						
04653														1.530484	-11.192810	-0.974204	0.993187	0.013515	0.115746	0.007602	0.983622	-0.180085	-0.116284	0.179738	0.976817						
04654														1.963605	-9.956971	-1.322246	0.992931	0.069860	0.095959	-0.053605	0.985236	-0.162595	-0.105901	0.156302	0.982016						
04655														1.596926	-9.406142	-1.898577	0.988795	0.123949	0.083196	-0.111091	0.983243	-0.144541	-0.099717	0.133679	0.985995						
04656														0.603178	-10.046807	-2.527534	0.980272	0.181632	0.077947	-0.170939	0.977063	-0.126998	-0.099226	0.111169	0.988836						
04657														0.463080	-10.820405	-2.973318	0.967336	0.241342	0.077557	-0.232602	0.966673	-0.106952	-0.100784	0.085419	0.991235						
04658														1.597496	-10.832356	-2.806056	0.952109	0.294723	0.081399	-0.288233	0.953982	-0.082701	-0.102027	0.055278	0.993245						
04659														2.741876	-11.229056	-2.859258	0.939627	0.329626	0.091908	-0.325678	0.943850	-0.055507	-0.105044	0.022223	0.994219						
04660														2.885351	-11.233276	-2.827913	0.932025	0.346665	0.105603	-0.346042	0.937892	-0.024762	-0.107629	-0.013464	0.994100						
04661														2.285191	-10.969305	-2.664344	0.929117	0.350580	0.117625	-0.353531	0.935412	0.004555	-0.108431	-0.045816	0.993048						
04662														1.683774	-10.347304	-1.972845	0.929028	0.347142	0.128061	-0.353656	0.934845	0.031495	-0.108784	-0.074549	0.991266						
04663														1.638427	-9.632818	-1.190332	0.929569	0.342458	0.136473	-0.352049	0.934479	0.053009	-0.109378	-0.097321	0.989224						
04664														1.142620	-8.514348	-0.432395	0.929331	0.338886	0.146630	-0.351405	0.933651	0.069358	-0.113397	-0.115983	0.986757						
04665														1.332247	-8.129746	0.373247	0.926752	0.340809	0.158053	-0.355878	0.931209	0.078748	-0.120343	-0.129228	0.984285						
04666														1.250768	-7.629093	0.519076	0.927419	0.333856	0.168626	-0.351434	0.932129	0.087345	-0.128021	-0.140267	0.981802						
04667														1.075604	-7.486572	0.630418	0.927594	0.328204	0.178469	-0.347934	0.932920	0.092753	-0.136055	-0.148132	0.979564						
04668														1.071980	-7.704179	0.438946	0.926228	0.326972	0.187592	-0.348122	0.932833	0.092918	-0.144611	-0.151368	0.977842						
04669														1.185186	-7.914022	0.385149	0.925742	0.323727	0.195455	-0.345842	0.933837	0.091335	-0.152956	-0.152149	0.976450						
04670														1.250421	-8.055128	-0.004334	0.926773	0.317049	0.201423	-0.339505	0.936473	0.088055	-0.160710	-0.149992	0.975538						
04671														1.276689	-7.833227	-0.265837	0.928601	0.309580	0.204600	-0.331491	0.939851	0.082423	-0.166777	-0.144361	0.975369						
04672														1.276762	-8.016204	-0.565491	0.931377	0.300532	0.205469	-0.320838	0.944306	0.073134	-0.172047	-0.134038	0.975927						
04673														1.366450	-9.067745	-0.517373	0.934654	0.290366	0.205208	-0.308073	0.949491	0.059655	-0.177521	-0.118975	0.976899						
04674														1.724423	-10.146618	-0.786777	0.938244	0.278893	0.204736	-0.293582	0.954891	0.044637	-0.183052	-0.101987	0.977799						
04675														2.415509	-10.953926	-0.591723	0.942579	0.266157	0.201754	-0.277198	0.960403	0.028071	-0.186294	-0.082385	0.979034						
04676														3.438058	-12.215146	-0.103070	0.949767	0.244954	0.194782	-0.251888	0.967691	0.011270	-0.185728	-0.059767	0.980782						
04677														3.674974	-11.215544	-0.150005	0.959113	0.217938	0.180567	-0.221592	0.975139	0.000069	-0.176063	-0.040078	0.983563						
04678														3.297967	-9.557263	-0.775580	0.966613	0.198131	0.162490	-0.198313	0.980020	-0.015267	-0.162268	-0.017466	0.986592						
04679														3.135679	-9.700850	-1.563341	0.971037	0.189101	0.146044	-0.186506	0.981952	-0.031389	-0.149344	0.003242	0.988780						
04680														3.560954	-10.035264	-0.827334	0.974545	0.180608	0.132824	-0.176496	0.983396	-0.042207	-0.138242	0.017689	0.990241						
04681														3.966623	-9.480459	-1.893601	0.979428	0.161308	0.121243	-0.155739	0.986313	-0.054145	-0.128317	0.034149	0.991145						
04682														4.042838	-9.925049	-2.503270	0.984393	0.135133	0.112734	-0.127518	0.989200	-0.072262	-0.121281	0.056758	0.990994						
04683														3.843599	-10.972872	-1.133849	0.988414	0.106305	0.108339	-0.096076	0.990769	-0.095632	-0.117505	0.084115	0.989503						
04684														3.354084	-11.918761	-0.933673	0.991408	0.074506	0.107508	-0.061458	0.990875	-0.119959	-0.115465	0.112321	0.986941						
04685														2.957262	-10.842628	-0.796391	0.993191	0.046130	0.106973	-0.030542	0.989247	-0.143027	-0.112420	0.138786	0.983921						
04686														3.000596	-9.608338	-0.268833	0.993952	0.020591	0.107870	-0.002340	0.986012	-0.166655	-0.109793	0.165395	0.980097						
04687														2.684419	-8.591132	-0.090665	0.993565	-0.004210	0.113186	0.025776	0.981491	-0.189764	-0.110292	0.191460	0.975284						
04688														2.358631	-8.154586	-0.076031	0.992212	-0.025421	0.121941	0.050981	0.976083	-0.211336	-0.113653	0.215907	0.969777						
04689														2.130771	-8.003244	-0.072010	0.990401	-0.041563	0.131828	0.071433	0.970396	-0.230713	-0.118336	0.237915	0.964050						
04690														2.174227	-7.850467	-0.160965	0.988814	-0.051402	0.140018	0.085196	0.965179	-0.247328	-0.122429	0.256491	0.958762						
04691														2.467026	-7.903395	-0.052089	0.987626	-0.056244	0.146394	0.093349	0.960928	-0.260583	-0.126018	0.271024	0.954288						
04692														2.897384	-7.942883	0.062678	0.986380	-0.060760	0.152851	0.100824	0.957567	-0.269998	-0.129960	0.281732	0.950651						
04693														2.729951	-8.343384	-0.074258	0.984893	-0.067419	0.159499	0.109826	0.955337	-0.274354	-0.133878	0.287727	0.948309						
04694														2.207975	-8.763707	-0.162732	0.983960	-0.071260	0.163539	0.114811	0.954617	-0.274818	-0.136534	0.289186	0.947486						
04695														1.930358	-9.724061	-0.007399	0.984042	-0.068850	0.164077	0.112487	0.955180	-0.273822	-0.137871	0.287909	0.947682						
04696														2.177391	-11.106203	0.262570	0.985190	-0.060001	0.160628	0.102576	0.956901	-0.271695	-0.137403	0.284148	0.948884						
04697														2.847632	-11.545687	-0.283147	0.987543	-0.044606	0.150896	0.084253	0.959821	-0.267665	-0.132894	0.277044	0.951623						
04698														3.098047	-10.810453	-0.727043	0.990109	-0.025797	0.137906	0.061235	0.963842	-0.259344	-0.126229	0.265223	0.955889						
04699														2.334709	-9.873059	-0.829888	0.991852	-0.004187	0.127329	0.035901	0.968140	-0.247824	-0.122235	0.250376	0.960401						
04700														1.483392	-9.102295	-1.173927	0.992753	0.023909	0.117770	0.004594	0.971743	-0.235998	-0.120084	0.234829	0.964591						
04701														0.832592	-8.669116	-1.413322	0.992316	0.057667	0.109469	-0.031979	0.974221	-0.223320	-0.119525	0.218103	0.968579						
04702														0.102860	-9.319342	-1.808540	0.989753	0.097774	0.104068	-0.074319	0.975035	-0.209247	-0.121929	0.199368	0.972309						
04703														0.395183	-11.194390	-2.202034	0.984107	0.146014	0.101065	-0.124584	0.973258	-0.192995	-0.126542	0.177337	0.975981						
04704														1.594116	-12.284647	-2.598137	0.975940	0.195131	0.097291	-0.176758	0.969291	-0.170974	-0.127665	0.149663	0.980460						
04705														2.657601	-11.590869	-2.881718	0.967436	0.235479	0.092828	-0.221124	0.964739	-0.142768	-0.123173	0.117592	0.985394						
04706														2.169245	-10.773085	-2.633839	0.959929	0.264434	0.092795	-0.253939	0.960819	-0.111095	-0.118536	0.083080	0.989468						
04707														1.053194	-10.791164	-2.401358	0.952464	0.289014	0.096355	-0.281927	0.956032	-0.080750	-0.115456	0.049747	0.992066						
04708														0.892164	-11.395597	-2.347683	0.943285	0.316063	0.101572	-0.312116	0.948560	-0.053072	-0.113122	0.018360	0.993411						
04709														1.460736	-11.344123	-2.038282	0.934133	0.340285	0.107707	-0.339608	0.940231	-0.025132	-0.109822	-0.013102	0.993865						
04710														2.028096	-10.584422	-1.226096	0.926458	0.358692	0.114091	-0.361127	0.932516	0.000728	-0.106131	-0.041876	0.993470						
04711														1.786873	-9.760046	-0.928625	0.921236	0.369817	0.120662	-0.375017	0.926736	0.022842	-0.103375	-0.066293	0.992431						
04712														1.003966	-9.366314	-0.722420	0.918140	0.375280	0.127213	-0.382975	0.922815	0.041752	-0.101725	-0.087053	0.990996						
04713														1.007370	-8.539413	-0.397961	0.913356	0.383860	0.135767	-0.394224	0.917111	0.059109	-0.101824	-0.107511	0.988976						
04714														1.660207	-7.645462	-0.191684	0.909774	0.388450	0.146348	-0.401601	0.912854	0.073577	-0.105013	-0.125711	0.986493						
04715														1.665134	-7.152874	-0.077022	0.909441	0.385279	0.156453	-0.401192	0.911908	0.086423	-0.109374	-0.141364	0.983897						
04716														1.231871	-7.176820	0.068100	0.910718	0.378858	0.164498	-0.397370	0.912326	0.098784	-0.112651	-0.155331	0.981418						
04717														1.137628	-7.788927	0.156172	0.911668	0.372746	0.172982	-0.393641	0.912981	0.107293	-0.117936	-0.165908	0.979064						
04718														1.292833	-8.636830	0.128089	0.912191	0.367466	0.181320	-0.390563	0.913563	0.113414	-0.123972	-0.174272	0.976862						
04719														1.443575	-8.917326	-0.139533	0.912946	0.362890	0.186654	-0.387455	0.914390	0.117342	-0.128093	-0.179447	0.975393						
04720														1.594865	-8.910339	-0.106644	0.915072	0.356468	0.188612	-0.381378	0.916946	0.117309	-0.131130	-0.179279	0.975020						
04721														1.593582	-8.926084	-0.124727	0.918503	0.347547	0.188581	-0.371663	0.921622	0.111714	-0.134975	-0.172698	0.975683						
04722														1.696112	-9.270747	-0.897754	0.922529	0.337413	0.187332	-0.359780	0.927542	0.101118	-0.139639	-0.160683	0.977078						
04723														1.836237	-9.339627	-1.095297	0.927830	0.324930	0.183171	-0.344713	0.934546	0.088297	-0.142492	-0.145066	0.979108						
04724														2.313239	-8.782470	-0.334660	0.934700	0.306983	0.179156	-0.323776	0.943327	0.072828	-0.146645	-0.126079	0.981121						
04725														2.809238	-9.814289	0.000902	0.943850	0.280789	0.174084	-0.293353	0.954660	0.050682	-0.151961	-0.098904	0.983426						
04726														2.982382	-10.818741	0.303654	0.954631	0.246909	0.166479	-0.254508	0.966731	0.025631	-0.154612	-0.066838	0.985712						
04727														2.251242	-8.630810	-0.431025	0.964016	0.213483	0.158426	-0.216480	0.976286	0.001703	-0.154306	-0.035937	0.987369						
04728														1.911071	-7.735212	-0.838533	0.969076	0.193739	0.152833	-0.191794	0.981050	-0.027512	-0.155266	-0.002651	0.987869						
04729														2.463686	-9.360826	-1.297916	0.971563	0.183196	0.150017	-0.176675	0.982686	-0.055810	-0.157644	0.027719	0.987107						
04730														3.796341	-11.479838	-2.072129	0.973575	0.174475	0.147341	-0.164699	0.983394	-0.076225	-0.158193	0.049944	0.986144						
04731														5.230987	-11.438961	-2.527178	0.977656	0.156630	0.140197	-0.145495	0.985571	-0.086490	-0.151721	0.064160	0.986339						
04732														5.507060	-11.142734	-1.288856	0.983493	0.120620	0.134879	-0.108145	0.989460	-0.096295	-0.145072	0.080119	0.986172						
04733														3.681012	-11.491307	-0.581550	0.987953	0.077116	0.134172	-0.062665	0.992088	-0.108785	-0.141500	0.099067	0.984969						
04734														2.068136	-11.662110	-0.880606	0.990024	0.044522	0.133682	-0.027528	0.991600	-0.126379	-0.138186	0.121438	0.982933						
04735														2.079220	-11.736711	-0.892368	0.990667	0.030221	0.132911	-0.010385	0.989012	-0.147473	-0.135907	0.144717	0.980095						
04736														3.336964	-11.013168	-0.715001	0.991005	0.021985	0.132008	0.000586	0.985691	-0.168560	-0.133825	0.167121	0.976812						
04737														4.028859	-9.647034	-0.996940	0.991466	0.012110	0.129802	0.012293	0.982556	-0.185560	-0.129785	0.185572	0.974022						
04738														3.927122	-8.430180	-1.294398	0.991393	-0.006779	0.130746	0.033001	0.979351	-0.199455	-0.126694	0.202053	0.971145						
04739														3.570927	-7.866604	-1.075618	0.989831	-0.033497	0.138250	0.062666	0.975173	-0.212392	-0.127704	0.218896	0.967355						
04740														3.327163	-7.851848	-1.113441	0.986839	-0.061196	0.149681	0.094412	0.969524	-0.226073	-0.131285	0.237229	0.962542						
04741														2.990033	-8.007667	-0.723314	0.982931	-0.085204	0.163055	0.123101	0.963251	-0.238732	-0.136722	0.254730	0.957298						
04742														2.612694	-7.758000	-0.083647	0.978986	-0.102876	0.176077	0.145546	0.957259	-0.249942	-0.142838	0.270317	0.952116						
04743														2.265628	-7.472946	0.170586	0.975766	-0.114146	0.186684	0.161036	0.952228	-0.259477	-0.148147	0.283252	0.947534						
04744														2.101102	-7.298879	0.419393	0.973522	-0.119674	0.194762	0.169737	0.949127	-0.265229	-0.153113	0.291265	0.944310						
04745														2.034646	-7.710330	0.608900	0.972415	-0.120238	0.199879	0.172097	0.948253	-0.266830	-0.157453	0.293868	0.942789						
04746														2.016548	-8.727139	1.023068	0.972318	-0.117338	0.202064	0.169389	0.949633	-0.263636	-0.160952	0.290565	0.943221						
04747														1.972199	-10.006128	1.535956	0.972718	-0.114573	0.201724	0.165330	0.952347	-0.256323	-0.162744	0.282681	0.945307						
04748														1.568231	-12.336897	1.812776	0.974005	-0.110218	0.197907	0.158221	0.956231	-0.246147	-0.162115	0.271061	0.948812						
04749														0.936177	-12.843817	0.734906	0.978604	-0.092702	0.183687	0.135108	0.962832	-0.233880	-0.155179	0.253693	0.954756						
04750														0.845477	-11.367471	-0.458808	0.985789	-0.054929	0.158757	0.089902	0.970814	-0.222346	-0.141910	0.233458	0.961956						
04751														0.999729	-9.969045	-1.209748	0.991238	0.001221	0.132079	0.026851	0.977215	-0.210547	-0.129327	0.212249	0.968620						
04752														0.649217	-9.720278	-2.275329	0.991467	0.068278	0.111047	-0.045217	0.979100	-0.198291	-0.122265	0.191578	0.973832						
04753														0.686687	-10.799569	-3.412257	0.985436	0.141561	0.094215	-0.122587	0.975376	-0.183341	-0.117849	0.169122	0.978524						
04754														1.791535	-11.463543	-3.712194	0.974560	0.208519	0.082171	-0.193625	0.967958	-0.159893	-0.112879	0.139915	0.983708						
04755														3.160664	-11.092844	-3.293219	0.963578	0.256250	0.076503	-0.245159	0.960713	-0.130106	-0.106837	0.106612	0.988544						
04756														3.195557	-10.887079	-2.973042	0.957001	0.279367	0.078127	-0.271410	0.957377	-0.098819	-0.102404	0.073366	0.992034						
04757														1.764890	-11.126004	-2.632549	0.953817	0.288599	0.083327	-0.283282	0.956474	-0.070059	-0.099919	0.043218	0.994056						
04758														0.460995	-10.760591	-2.318208	0.949478	0.301369	0.087571	-0.298451	0.953363	-0.045013	-0.097053	0.016603	0.995141						
04759														0.663170	-9.839941	-1.562626	0.942461	0.321283	0.092437	-0.320338	0.946966	-0.025295	-0.095662	-0.005771	0.995397						
04760														1.291816	-8.733731	-0.914110	0.933301	0.344586	0.101048	-0.345288	0.938432	-0.011016	-0.098622	-0.024609	0.994821						
04761														1.504564	-8.279972	-0.395864	0.925286	0.362342	0.112045	-0.364576	0.931174	-0.000597	-0.104549	-0.040296	0.993703						
04762														0.906600	-8.275118	-0.316779	0.918497	0.374621	0.126580	-0.378665	0.925494	0.008632	-0.113915	-0.055860	0.991919						
04763														1.470246	-8.046854	0.157463	0.909010	0.390768	0.144918	-0.397182	0.917580	0.017130	-0.126280	-0.073131	0.989295						
04764														1.434140	-8.171038	0.416746	0.905369	0.392032	0.163151	-0.401643	0.915323	0.029420	-0.137803	-0.092165	0.986162						
04765														0.817117	-8.308383	0.034855	0.905223	0.385777	0.178176	-0.399179	0.915754	0.045289	-0.145694	-0.112120	0.982956						
04766														0.622953	-8.144423	-0.142039	0.902849	0.385636	0.190127	-0.402910	0.913203	0.061028	-0.150090	-0.131703	0.979861						
04767														0.903051	-8.883703	0.012545	0.899646	0.388008	0.200218	-0.408611	0.909791	0.072914	-0.153865	-0.147408	0.977034						
04768														1.194925	-10.115835	-0.380812	0.898502	0.386904	0.207361	-0.410603	0.907815	0.085311	-0.155239	-0.161795	0.974538						
04769														1.557321	-10.681085	-0.834589	0.899670	0.382700	0.210081	-0.408978	0.907172	0.098870	-0.152742	-0.174869	0.972672						
04770														1.987467	-9.574960	-1.412224	0.902260	0.377739	0.207944	-0.405351	0.907480	0.110321	-0.147032	-0.183829	0.971899						
04771														2.233501	-8.296711	-1.291001	0.906570	0.370586	0.201983	-0.397994	0.909911	0.116890	-0.140469	-0.186356	0.972389						
04772														2.614748	-7.221841	-0.765440	0.914318	0.355259	0.194457	-0.381579	0.916557	0.119667	-0.135718	-0.183614	0.973584						
04773														2.705321	-6.948101	-0.294685	0.923962	0.333318	0.187600	-0.357532	0.926916	0.114006	-0.135889	-0.172411	0.975607						
04774														3.054829	-10.133849	0.364219	0.934612	0.305569	0.182012	-0.326004	0.940594	0.094887	-0.142205	-0.148020	0.978707						
04775														3.221927	-12.787311	0.614891	0.946547	0.272475	0.172647	-0.288048	0.954889	0.072215	-0.145182	-0.118086	0.982333						
04776														2.692229	-11.199996	-0.416056	0.956384	0.243528	0.161318	-0.254461	0.965754	0.050676	-0.143452	-0.089515	0.985601						
04777														3.069424	-11.363129	-0.828133	0.962910	0.223478	0.151199	-0.229798	0.972905	0.025473	-0.141409	-0.059273	0.988175						
04778														4.009021	-11.203900	-0.655877	0.968075	0.209403	0.137770	-0.212358	0.977167	0.006948	-0.133170	-0.035983	0.990440						
04779														4.218772	-9.729132	-0.573496	0.973331	0.192988	0.124023	-0.193703	0.981039	-0.006385	-0.122903	-0.017809	0.992259						
04780														3.684637	-9.488893	-1.211589	0.979934	0.162843	0.114941	-0.161166	0.986640	-0.023795	-0.117281	0.004793	0.993087						
04781														2.923351	-8.995631	-1.204818	0.984763	0.134464	0.110277	-0.130448	0.990527	-0.042894	-0.115000	0.027855	0.992975						
04782														2.812501	-9.016268	-0.885974	0.987833	0.110125	0.109816	-0.103050	0.992338	-0.068159	-0.116480	0.056014	0.991612						
04783														2.516438	-10.460182	-0.493089	0.989550	0.089764	0.112838	-0.078905	0.992125	-0.097274	-0.120681	0.087354	0.988840						
04784														2.126389	-10.255681	-0.504096	0.990804	0.071166	0.115080	-0.056823	0.990724	-0.123437	-0.122797	0.115763	0.985657						
04785														2.496678	-9.261777	-0.473794	0.991787	0.055095	0.115422	-0.037587	0.988165	-0.148718	-0.122250	0.143158	0.982120						
04786														2.832052	-8.773150	-0.177304	0.992397	0.036681	0.117482	-0.015879	0.984737	-0.173326	-0.122047	0.170142	0.977832						
04787														2.787670	-8.736166	-0.522046	0.992449	0.014962	0.121744	0.009302	0.980495	-0.196326	-0.122306	0.195976	0.972952						
04788														2.754659	-9.050518	-1.072363	0.991892	-0.007206	0.126877	0.034939	0.975381	-0.217743	-0.122184	0.220411	0.967724						
04789														3.189461	-9.298401	-1.114869	0.990677	-0.028245	0.133275	0.059544	0.969655	-0.237115	-0.122533	0.242840	0.962296						
04790														3.582889	-9.449847	-0.901224	0.988817	-0.048271	0.141107	0.083359	0.963458	-0.254557	-0.123663	0.263472	0.956708						
04791														3.200479	-9.134057	-0.783637	0.986522	-0.066389	0.149554	0.105178	0.957444	-0.268773	-0.125346	0.280880	0.951522						
04792														2.833050	-8.640667	-1.022944	0.984220	-0.079023	0.158324	0.121912	0.951330	-0.283036	-0.128252	0.297871	0.945952						
04793														2.499321	-8.681791	-0.415895	0.982475	-0.083812	0.166489	0.130888	0.946149	-0.296093	-0.132707	0.312695	0.940537						
04794														2.168455	-8.942455	-0.033377	0.981701	-0.081285	0.172206	0.131639	0.943126	-0.305262	-0.137599	0.322345	0.936568						
04795														2.375439	-9.393349	0.206910	0.981928	-0.073953	0.174210	0.125663	0.943063	-0.307962	-0.141516	0.324288	0.935313						
04796														2.762033	-9.847144	0.609461	0.982559	-0.067056	0.173438	0.118055	0.945582	-0.303212	-0.143667	0.318399	0.937007						
04797														2.536562	-10.190730	0.733354	0.983203	-0.063592	0.171078	0.112198	0.949898	-0.291727	-0.143955	0.306022	0.941078						
04798														1.796770	-10.663779	0.547938	0.984870	-0.055851	0.164051	0.100311	0.955663	-0.276852	-0.141315	0.289119	0.946805						
04799														1.681458	-11.171612	0.012934	0.987508	-0.039273	0.152597	0.078583	0.962159	-0.260913	-0.136576	0.269645	0.953225						
04800														1.810592	-11.223913	-0.773469	0.990221	-0.012145	0.138980	0.046059	0.968805	-0.243506	-0.131687	0.247526	0.959890						
04801														1.831372	-10.007202	-1.362832	0.991782	0.023538	0.125754	0.005236	0.974639	-0.223723	-0.127831	0.222543	0.966506						
04802														1.713055	-9.240362	-1.355600	0.991128	0.065438	0.115686	-0.040629	0.977905	-0.205064	-0.126549	0.198544	0.971888						
04803														1.227012	-9.884037	-2.036703	0.987384	0.113325	0.110595	-0.091344	0.978147	-0.186775	-0.129344	0.174316	0.976158						
04804														1.113861	-10.816411	-2.488059	0.980140	0.165463	0.109306	-0.146077	0.975188	-0.166343	-0.134117	0.147073	0.979991						
04805														1.692365	-11.103023	-2.568333	0.970094	0.216047	0.110636	-0.199682	0.969475	-0.142289	-0.138000	0.115942	0.983623						
04806														2.143730	-10.151068	-2.430460	0.959177	0.258572	0.114540	-0.245673	0.962457	-0.115419	-0.140084	0.082568	0.986691						
04807														1.875847	-9.520389	-2.218045	0.949497	0.288418	0.123575	-0.278752	0.956155	-0.089808	-0.144059	0.050825	0.988263						
04808														1.120904	-10.385205	-2.074316	0.940244	0.311576	0.137340	-0.305125	0.950002	-0.066299	-0.151130	0.020431	0.988303						
04809														1.096650	-11.324796	-2.429645	0.930774	0.332801	0.151336	-0.330161	0.942945	-0.043003	-0.157014	-0.009939	0.987546						
04810														1.840998	-10.760767	-2.150348	0.922936	0.348867	0.162726	-0.350548	0.936348	-0.019222	-0.159074	-0.039302	0.986484						
04811														2.288654	-9.693981	-1.545941	0.917530	0.357705	0.173739	-0.363619	0.931545	0.002374	-0.160997	-0.065353	0.984789						
04812														1.741966	-8.471276	-1.126157	0.914122	0.361045	0.184466	-0.370664	0.928564	0.019400	-0.164284	-0.086109	0.982647						
04813														1.801824	-7.648879	-0.413480	0.910935	0.362162	0.197575	-0.374110	0.927032	0.025580	-0.173894	-0.097216	0.979954						
04814														1.660807	-7.953718	-1.217046	0.910104	0.356675	0.210934	-0.370878	0.928173	0.030725	-0.184824	-0.106194	0.977017						
04815														1.352918	-8.253480	-1.164931	0.909476	0.352830	0.219918	-0.369643	0.928344	0.039260	-0.190307	-0.116997	0.974728						
04816														1.226955	-8.473477	-0.459392	0.908191	0.351416	0.227367	-0.370711	0.927551	0.047149	-0.194326	-0.127107	0.972667						
04817														1.329806	-8.639913	-0.455582	0.907703	0.349396	0.232372	-0.370757	0.927146	0.054208	-0.196503	-0.135359	0.971115						
04818														1.296947	-8.445284	-0.731214	0.908009	0.347715	0.233697	-0.370393	0.926938	0.059951	-0.195777	-0.140996	0.970459						
04819														1.551777	-8.194426	-0.868404	0.909431	0.345011	0.232169	-0.368145	0.927588	0.063636	-0.193402	-0.143345	0.970591						
04820														1.766960	-8.317650	-1.168078	0.912800	0.338689	0.228223	-0.361507	0.930055	0.065654	-0.190024	-0.142433	0.971393						
04821														1.669646	-8.611616	-1.216266	0.917551	0.329500	0.222555	-0.351161	0.934066	0.064855	-0.186511	-0.137661	0.972761						
04822														2.021910	-9.001258	-0.749615	0.923232	0.316963	0.217204	-0.336642	0.939748	0.059542	-0.185244	-0.128091	0.974309						
04823														2.629789	-9.765990	-0.766628	0.929657	0.300886	0.212616	-0.317329	0.947142	0.047152	-0.187191	-0.111304	0.975997						
04824														3.358000	-11.346177	-1.358176	0.938237	0.277685	0.206402	-0.289540	0.956726	0.029014	-0.189413	-0.086984	0.978037						
04825														3.858911	-11.135962	-1.163618	0.948430	0.250767	0.193901	-0.257470	0.966237	0.009760	-0.184907	-0.059180	0.980973						
04826														3.830350	-10.283088	-0.894847	0.957909	0.224331	0.179126	-0.225589	0.974128	-0.013587	-0.177539	-0.027394	0.983732						
04827														3.928109	-10.931622	-0.724368	0.965910	0.199789	0.164629	-0.195883	0.979819	-0.039802	-0.169259	0.006197	0.985552						
04828														3.887567	-11.037349	-0.737985	0.972879	0.174533	0.151806	-0.166985	0.984057	-0.061218	-0.160070	0.034209	0.986513						
04829														3.427401	-10.505144	-0.699189	0.978521	0.150152	0.141247	-0.140126	0.987018	-0.078490	-0.151199	0.057012	0.986858						
04830														3.405091	-9.909421	-0.625060	0.982863	0.128089	0.132568	-0.116176	0.988768	-0.094027	-0.143123	0.077014	0.986704						
04831														3.188846	-9.849010	-0.302285	0.985991	0.107396	0.127626	-0.093393	0.989415	-0.111067	-0.138203	0.097592	0.985584						
04832														2.819877	-10.285146	-0.535423	0.987985	0.089487	0.126011	-0.073224	0.989035	-0.128249	-0.136105	0.117481	0.983704						
04833														2.692807	-9.536600	-1.016605	0.989757	0.069761	0.124556	-0.051653	0.988359	-0.143104	-0.133089	0.135205	0.981839						
04834														3.024476	-8.490423	-0.667498	0.990992	0.047750	0.125121	-0.027594	0.987032	-0.158132	-0.131049	0.153255	0.979458						
04835														3.179925	-8.172086	-0.583753	0.991205	0.025294	0.129895	-0.002184	0.984556	-0.175057	-0.132317	0.173234	0.975952						
04836														2.801750	-8.315880	-0.578472	0.990169	0.007993	0.139648	0.019200	0.981150	-0.192293	-0.138552	0.193084	0.971351						
04837														2.424968	-8.617466	-0.848646	0.988557	-0.001640	0.150836	0.033898	0.976782	-0.211539	-0.146987	0.214231	0.965660						
04838														2.796163	-8.966773	-0.869053	0.987184	-0.006634	0.159451	0.043963	0.971782	-0.231747	-0.153414	0.235787	0.959619						
04839														3.495668	-9.003580	-0.892238	0.986006	-0.011188	0.166335	0.052932	0.967126	-0.248727	-0.158084	0.254050	0.954184						
04840														3.725099	-8.833124	-0.996659	0.984969	-0.016574	0.171932	0.061852	0.963223	-0.261487	-0.161275	0.268191	0.949770						
04841														3.799484	-8.860901	-0.908703	0.983876	-0.025116	0.177081	0.073166	0.959974	-0.270363	-0.163203	0.278960	0.946333						
04842														3.601654	-8.988718	-0.762406	0.982647	-0.035636	0.182028	0.085278	0.958299	-0.272747	-0.164717	0.283537	0.944709						
04843														3.269811	-8.501659	-0.555550	0.981500	-0.045947	0.185869	0.095899	0.958204	-0.269534	-0.165716	0.282372	0.944883						
04844														2.777862	-8.348604	-0.282496	0.980635	-0.053955	0.188265	0.103266	0.959258	-0.262981	-0.166406	0.277330	0.946254						
04845														2.607674	-8.409222	0.193264	0.980221	-0.058194	0.189157	0.106066	0.961407	-0.253865	-0.167083	0.268907	0.948563						
04846														2.483488	-8.711830	0.566696	0.980206	-0.059779	0.188737	0.105654	0.964172	-0.243331	-0.167429	0.258455	0.951403						
04847														2.122992	-9.898315	0.973211	0.980727	-0.057922	0.186598	0.101208	0.967532	-0.231599	-0.167125	0.246021	0.954748						
04848														1.471264	-11.520101	0.795788	0.982343	-0.048899	0.180586	0.088754	0.971514	-0.219735	-0.164697	0.231883	0.958700						
04849														1.400556	-12.400785	-0.085000	0.985488	-0.025599	0.167802	0.060550	0.976543	-0.206632	-0.158576	0.213794	0.963922						
04850														2.126980	-11.480686	-0.983663	0.988621	0.009897	0.150100	0.019349	0.981178	-0.192133	-0.149177	0.192851	0.969822						
04851														2.579350	-10.047864	-1.275145	0.989527	0.051328	0.134915	-0.026951	0.983904	-0.176656	-0.141811	0.171170	0.974982						
04852														1.895727	-9.764389	-1.596231	0.987291	0.097385	0.125589	-0.076263	0.983638	-0.163216	-0.139429	0.151564	0.978564						
04853														0.987148	-10.691018	-2.064801	0.981193	0.150707	0.120618	-0.132013	0.979785	-0.150312	-0.140833	0.131561	0.981253						
04854														1.006095	-11.362876	-2.230486	0.970615	0.209642	0.118139	-0.193620	0.971895	-0.133907	-0.142892	0.107098	0.983927						
04855														1.929679	-10.859666	-2.173088	0.957320	0.264187	0.117233	-0.251457	0.961268	-0.112843	-0.142504	0.078548	0.986673						
04856														2.129565	-10.145464	-2.279532	0.944562	0.304948	0.121696	-0.295415	0.951088	-0.090342	-0.143293	0.049383	0.988447						
04857														1.403690	-10.611928	-2.219079	0.933383	0.334141	0.130941	-0.327882	0.942312	-0.067393	-0.145906	0.019970	0.989097						
04858														1.181289	-10.992815	-2.120854	0.923123	0.357901	0.140536	-0.355487	0.933701	-0.042797	-0.146536	-0.010451	0.989150						
04859														1.580911	-10.234882	-1.959446	0.914287	0.377069	0.147980	-0.378727	0.925335	-0.017910	-0.143685	-0.039669	0.988828						
04860														1.901839	-9.227279	-1.200198	0.907545	0.390261	0.155111	-0.395603	0.918413	0.003913	-0.140929	-0.064914	0.987889						
04861														1.694652	-8.838776	-1.010665	0.903108	0.397478	0.162501	-0.406032	0.913597	0.021883	-0.139762	-0.085743	0.986466						
04862														0.925443	-8.570836	-0.779540	0.898757	0.404219	0.169831	-0.415460	0.908927	0.035283	-0.140102	-0.102269	0.984841						
04863														1.200269	-8.220814	-0.273038	0.890613	0.418010	0.179101	-0.431788	0.900874	0.044566	-0.142719	-0.117024	0.982821						
04864														1.697351	-8.020149	-0.347403	0.885905	0.423705	0.188804	-0.440326	0.896152	0.054991	-0.145898	-0.131852	0.980474						
04865														1.742897	-8.086132	-0.100444	0.884911	0.422084	0.196922	-0.441213	0.895110	0.064099	-0.149211	-0.143606	0.978322						
04866														1.589404	-8.488894	-0.274047	0.884410	0.419934	0.203655	-0.441433	0.894326	0.072919	-0.151513	-0.154390	0.976323						
04867														1.521756	-8.723206	-0.388939	0.884982	0.416241	0.208687	-0.439924	0.894298	0.081849	-0.152559	-0.164241	0.974551						
04868														1.510738	-8.626304	-0.608313	0.886399	0.411591	0.211872	-0.437093	0.894880	0.090218	-0.152467	-0.172577	0.973124						
04869														1.675707	-8.946342	-0.602940	0.888132	0.407273	0.212954	-0.433519	0.896232	0.093968	-0.152586	-0.175775	0.972533						
04870														1.804140	-9.774266	-0.806326	0.891293	0.400644	0.212326	-0.426608	0.899612	0.093291	-0.153634	-0.173729	0.972736						
04871														1.902877	-10.112589	-1.379214	0.895837	0.391981	0.209348	-0.416795	0.904546	0.089882	-0.154133	-0.167775	0.973701						
04872														2.077936	-9.442171	-1.201240	0.902570	0.378811	0.204620	-0.401994	0.911645	0.085461	-0.154168	-0.159390	0.975104						
04873														2.414279	-8.777602	-0.641444	0.912305	0.357705	0.199365	-0.378549	0.922342	0.077372	-0.156206	-0.146057	0.976866						
04874														2.742986	-9.715548	-0.414298	0.924513	0.328684	0.192985	-0.345814	0.936247	0.062077	-0.160278	-0.124128	0.979236						
04875														3.410438	-12.620301	0.199276	0.938133	0.293662	0.183490	-0.305331	0.951476	0.038305	-0.163338	-0.091960	0.982275						
04876														3.227184	-12.507921	-0.235383	0.950631	0.260882	0.168051	-0.267497	0.963398	0.017600	-0.157308	-0.061684	0.985621						
04877														2.510922	-10.123605	-0.432842	0.960444	0.231937	0.154122	-0.234360	0.972147	-0.002510	-0.150411	-0.033709	0.988049						
04878														3.078562	-9.227253	-0.641659	0.967019	0.211351	0.142144	-0.210520	0.977363	-0.021028	-0.143370	-0.009590	0.989623						
04879														3.914267	-7.977482	-0.724661	0.971028	0.198507	0.133043	-0.195755	0.980077	-0.033588	-0.137060	0.006571	0.990541						
04880														3.790859	-8.130690	-1.168291	0.975911	0.175845	0.129139	-0.171234	0.984153	-0.046065	-0.135193	0.022843	0.990556						
04881														3.035391	-10.104689	-0.919681	0.980680	0.144889	0.131433	-0.138431	0.988727	-0.057057	-0.138219	0.037760	0.989682						
04882														2.342379	-10.502381	-0.382247	0.984061	0.116498	0.134356	-0.108522	0.991949	-0.065264	-0.140877	0.049643	0.988782						
04883														2.376499	-9.527735	-0.227714	0.986484	0.091278	0.136077	-0.081577	0.993822	-0.075253	-0.142105	0.063135	0.987836						
04884														2.495341	-9.225442	0.036440	0.988075	0.067190	0.138541	-0.054993	0.994416	-0.090069	-0.143819	0.081376	0.986253						
04885														2.040901	-9.125866	0.015416	0.988980	0.045797	0.140785	-0.030616	0.993661	-0.108169	-0.144847	0.102666	0.984113						
04886														2.061087	-8.780357	-0.244910	0.989502	0.029389	0.141502	-0.011180	0.991738	-0.127794	-0.144089	0.124870	0.981655						
04887														2.635703	-8.797430	-0.263262	0.989753	0.012785	0.142215	0.008477	0.988965	-0.147907	-0.142537	0.147597	0.978723						
04888														3.237461	-9.138233	-0.127455	0.989594	-0.007158	0.143708	0.031205	0.985667	-0.165789	-0.140462	0.168548	0.975634						
04889														3.365809	-9.410448	-0.152222	0.988730	-0.031724	0.146309	0.058207	0.981860	-0.180454	-0.137930	0.186937	0.972641						
04890														3.125025	-9.555906	-0.263007	0.986914	-0.058586	0.150226	0.087176	0.977624	-0.191448	-0.135648	0.202039	0.969938						
04891														3.082311	-9.413822	-0.256995	0.984542	-0.082531	0.154486	0.113079	0.973083	-0.200805	-0.133755	0.215170	0.967373						
04892														3.020647	-9.139542	-0.413473	0.982231	-0.100379	0.158579	0.132760	0.968855	-0.209035	-0.132657	0.226373	0.964965						
04893														3.079246	-8.998928	-0.300724	0.980467	-0.110831	0.162487	0.145008	0.965461	-0.216467	-0.132884	0.235801	0.962673						
04894														2.906787	-8.998989	-0.228611	0.979083	-0.116819	0.166582	0.152738	0.962904	-0.222459	-0.134415	0.243249	0.960605						
04895														2.691737	-9.261624	-0.203287	0.978477	-0.117545	0.169608	0.154874	0.961468	-0.227143	-0.136373	0.248522	0.958978						
04896														2.724580	-9.343933	-0.075789	0.978337	-0.116117	0.171389	0.154232	0.961065	-0.229275	-0.138093	0.250742	0.958154						
04897														2.589416	-9.628183	-0.293527	0.979563	-0.108771	0.169189	0.146609	0.961996	-0.230367	-0.137702	0.250464	0.958283						
04898														3.091225	-9.661997	-0.470549	0.981481	-0.098119	0.164522	0.134775	0.964030	-0.229089	-0.136126	0.247020	0.959401						
04899														3.457234	-9.396924	-0.257637	0.982566	-0.092615	0.161202	0.127856	0.966106	-0.224259	-0.134968	0.240960	0.961105						
04900														3.007396	-9.338324	0.262129	0.982996	-0.090553	0.159748	0.124582	0.967985	-0.217909	-0.134901	0.234105	0.962807						
04901														2.354200	-9.659768	0.683307	0.983902	-0.084698	0.157363	0.117400	0.970231	-0.211824	-0.134737	0.226888	0.964556						
04902														2.311122	-9.487027	1.023785	0.985611	-0.072935	0.152487	0.103706	0.973298	-0.204783	-0.133479	0.217650	0.966857						
04903														2.299901	-9.002940	0.975093	0.987582	-0.057071	0.146374	0.085500	0.976873	-0.195984	-0.131804	0.206065	0.969621						
04904														1.994038	-9.443321	0.704563	0.989597	-0.034793	0.139596	0.060749	0.980624	-0.186243	-0.130411	0.192786	0.972536						
04905														1.397189	-11.313706	0.310329	0.991143	-0.004489	0.132722	0.027797	0.984301	-0.174297	-0.129856	0.176443	0.975708						
04906														1.019292	-13.463782	-0.568154	0.991700	0.035390	0.123603	-0.015529	0.987303	-0.158088	-0.127629	0.154856	0.979658						
04907														1.945033	-11.717580	-1.913052	0.991239	0.079293	0.105635	-0.064688	0.988712	-0.135146	-0.115159	0.127128	0.985179						
04908														1.919075	-8.667501	-2.647604	0.988585	0.121292	0.089371	-0.110911	0.987365	-0.113177	-0.101969	0.101973	0.989547						
04909														1.026872	-8.176035	-2.185163	0.982260	0.168062	0.083192	-0.159834	0.982337	-0.097303	-0.098075	0.082280	0.991772						
04910														-0.299919	-9.774130	-2.218506	0.971507	0.221232	0.085037	-0.214093	0.973057	-0.085583	-0.101680	0.064939	0.992695						
04911														-0.120378	-12.087956	-2.571367	0.956554	0.276738	0.091763	-0.270670	0.959879	-0.073282	-0.108362	0.045261	0.993081						
04912														1.553802	-13.637813	-2.710614	0.940378	0.325066	0.100106	-0.321236	0.945531	-0.052703	-0.111785	0.017403	0.993580						
04913														3.166554	-12.328511	-2.443850	0.925653	0.362837	0.107315	-0.362486	0.931694	-0.023456	-0.108496	-0.017188	0.993948						
04914														3.265645	-10.183292	-1.921595	0.916076	0.385003	0.112148	-0.388199	0.921546	0.007326	-0.100529	-0.050247	0.993664						
04915														1.817070	-8.758320	-1.809429	0.912306	0.393016	0.115051	-0.399166	0.916192	0.035485	-0.091463	-0.078298	0.992726						
04916														0.599339	-7.835661	-1.544445	0.908794	0.399653	0.119876	-0.408324	0.910960	0.058511	-0.085818	-0.102123	0.991063						
04917														0.148739	-7.574313	-0.966905	0.900706	0.414316	0.130652	-0.425662	0.901786	0.074792	-0.086833	-0.122979	0.988603						
04918														0.925704	-7.700685	0.056527	0.889292	0.433747	0.144997	-0.448114	0.889761	0.086711	-0.091402	-0.142086	0.985625						
04919														1.661733	-8.558732	0.380168	0.881071	0.445259	0.159554	-0.462734	0.881300	0.095857	-0.097934	-0.158288	0.982524						
04920														1.918678	-9.156548	0.587496	0.876862	0.448607	0.172815	-0.469321	0.876700	0.105525	-0.104167	-0.173636	0.979285						
04921														1.502345	-9.692043	0.325805	0.875862	0.446987	0.181847	-0.470565	0.874627	0.116600	-0.106930	-0.187697	0.976389						
04922														1.299998	-9.734333	0.296458	0.875832	0.444565	0.187832	-0.470616	0.872967	0.128254	-0.106954	-0.200725	0.973792						
04923														1.576256	-9.385485	0.488425	0.875898	0.443008	0.191172	-0.470685	0.871657	0.136634	-0.106106	-0.209659	0.972000						
04924														1.945373	-8.847508	0.243564	0.876247	0.442487	0.190780	-0.470394	0.871358	0.139516	-0.104504	-0.211993	0.971668						
04925														2.143960	-8.907695	0.432024	0.876936	0.442483	0.187595	-0.469354	0.872441	0.136215	-0.103393	-0.207500	0.972756						
04926														2.198662	-9.079597	0.446589	0.877443	0.442847	0.184337	-0.468345	0.873975	0.129698	-0.103669	-0.200136	0.974268						
04927														2.383772	-8.875028	0.058559	0.877617	0.443804	0.181179	-0.467809	0.875414	0.121678	-0.104605	-0.191544	0.975894						
04928														2.370698	-8.583354	0.133371	0.878629	0.442892	0.178488	-0.465498	0.877744	0.113475	-0.106410	-0.182788	0.977377						
04929														2.135991	-8.456154	0.493202	0.881812	0.437183	0.176857	-0.458593	0.882380	0.105344	-0.110001	-0.173999	0.978583						
04930														1.740616	-8.654570	0.624819	0.886973	0.426889	0.176197	-0.446915	0.889569	0.094521	-0.116389	-0.162582	0.979806						
04931														1.488203	-8.985933	0.470150	0.892899	0.414654	0.175483	-0.432664	0.898045	0.079479	-0.124635	-0.146891	0.981269						
04932														1.496203	-9.383276	0.649447	0.899971	0.400061	0.173213	-0.415074	0.907814	0.059890	-0.133285	-0.125795	0.983062						
04933														1.579348	-9.600193	0.681704	0.908147	0.382728	0.169672	-0.393937	0.918397	0.036874	-0.141714	-0.100328	0.984810						
04934														1.524198	-9.616401	0.332196	0.917017	0.363255	0.164697	-0.370312	0.928813	0.013272	-0.148151	-0.073160	0.986255						
04935														1.530581	-9.645768	0.520308	0.925477	0.344317	0.157916	-0.346882	0.937833	-0.011913	-0.152201	-0.043753	0.987381						
04936														1.652460	-9.763267	0.680751	0.934724	0.321730	0.150935	-0.319934	0.946728	-0.036711	-0.154706	-0.013975	0.987862						
04937														1.674492	-9.609626	-0.045955	0.945319	0.292363	0.144554	-0.286544	0.956185	-0.060029	-0.155770	0.015325	0.987674						
04938														1.594116	-10.348334	-0.719027	0.955673	0.257976	0.141906	-0.247962	0.965075	-0.084532	-0.158758	0.045598	0.986264						
04939														2.623856	-12.393382	-0.731699	0.964911	0.221742	0.140630	-0.207982	0.972356	-0.106146	-0.160280	0.073173	0.984356						
04940														2.721938	-11.211728	-0.424456	0.974146	0.179995	0.136534	-0.164494	0.979359	-0.117468	-0.154859	0.091972	0.983646						
04941														1.154439	-10.451308	-1.658765	0.979845	0.149774	0.132177	-0.132248	0.982294	-0.132700	-0.149711	0.112545	0.982303						
04942														1.453473	-10.644418	-2.820438	0.981186	0.148240	0.123690	-0.128855	0.979907	-0.152243	-0.143773	0.133441	0.980573						
04943														4.837227	-10.194105	-2.958429	0.982591	0.147730	0.112655	-0.128421	0.978273	-0.162760	-0.134252	0.145459	0.980213						
04944														6.439930	-10.017930	-3.103810	0.986920	0.121401	0.106071	-0.102257	0.980074	-0.170288	-0.124630	0.157214	0.979669						
04945														4.339903	-10.423122	-3.534167	0.990661	0.086381	0.105497	-0.066657	0.981780	-0.177945	-0.118946	0.169251	0.978369						
04946														3.209917	-9.901453	-3.542212	0.992531	0.056885	0.107917	-0.035875	0.981613	-0.187480	-0.116597	0.182208	0.976322						
04947														3.396021	-9.199811	-3.037297	0.992981	0.035314	0.112878	-0.011823	0.979242	-0.202351	-0.117680	0.199596	0.972786						
04948														3.573397	-8.979228	-2.063754	0.992530	0.018069	0.120652	0.008927	0.975563	-0.219540	-0.121671	0.218977	0.968114						
04949														3.121450	-8.649255	-1.669900	0.991192	-0.000533	0.132434	0.031966	0.971388	-0.235336	-0.128520	0.237497	0.962849						
04950														2.495802	-8.296746	-1.368460	0.988986	-0.018820	0.146806	0.055513	0.966638	-0.250057	-0.137202	0.255453	0.957037						
04951														2.309121	-8.336071	-0.860539	0.986229	-0.035631	0.161500	0.077992	0.961315	-0.264180	-0.145839	0.273138	0.950856						
04952														2.352646	-8.610271	-0.441093	0.982937	-0.053905	0.175867	0.101729	0.955878	-0.275587	-0.153252	0.288775	0.945052						
04953														2.391607	-8.877626	-0.139193	0.979535	-0.074128	0.187125	0.126032	0.950776	-0.283091	-0.156929	0.300881	0.940661						
04954														2.110464	-8.975812	0.127981	0.976280	-0.095247	0.194438	0.149420	0.946299	-0.286691	-0.156690	0.308943	0.938084						
04955														2.065323	-8.776308	0.295093	0.974121	-0.109682	0.197632	0.164572	0.943526	-0.287533	-0.154933	0.312616	0.937159						
04956														2.584016	-8.565012	-0.128646	0.974078	-0.113735	0.195544	0.167997	0.942591	-0.288615	-0.151492	0.313984	0.937264						
04957														3.024176	-8.776924	-0.923682	0.975592	-0.109594	0.190290	0.162252	0.943679	-0.288348	-0.147972	0.312184	0.938427						
04958														3.417206	-8.876407	-1.191412	0.978095	-0.099059	0.183080	0.149333	0.946642	-0.285601	-0.145020	0.306685	0.940699						
04959														3.706174	-8.872108	-1.451641	0.980601	-0.086208	0.176040	0.134055	0.950173	-0.281425	-0.143007	0.299565	0.943297						
04960														3.543071	-8.904677	-1.263595	0.982505	-0.075473	0.170260	0.120932	0.953792	-0.275057	-0.141633	0.290835	0.946232						
04961														3.078129	-8.970766	-0.608994	0.984151	-0.065350	0.164855	0.108388	0.957436	-0.267522	-0.140356	0.281150	0.949344						
04962														2.564527	-9.115816	-0.176684	0.986148	-0.052333	0.157397	0.092319	0.961534	-0.258708	-0.137804	0.269655	0.953046						
04963														2.081143	-9.443321	0.035992	0.988832	-0.033480	0.145223	0.069111	0.966344	-0.247797	-0.132040	0.255066	0.957866						
04964														2.057089	-9.805693	-0.032456	0.991579	-0.008492	0.129226	0.038941	0.971221	-0.234977	-0.123511	0.238030	0.963373						
04965														2.452225	-9.647410	-0.515745	0.993535	0.020479	0.111660	0.004702	0.975326	-0.220718	-0.113425	0.219816	0.968925						
04966														2.838857	-9.676494	-1.055688	0.994335	0.049005	0.094318	-0.028634	0.978068	-0.206309	-0.102359	0.202440	0.973930						
04967														2.505180	-10.529721	-1.422253	0.993650	0.079068	0.080050	-0.062558	0.979586	-0.191045	-0.093521	0.184824	0.978312						
04968														2.067718	-12.252196	-1.501024	0.990928	0.115463	0.068777	-0.101939	0.979236	-0.175230	-0.087582	0.166629	0.982122						
04969														1.610486	-12.864334	-2.251553	0.985482	0.159170	0.059075	-0.148543	0.976841	-0.153999	-0.082219	0.142988	0.986303						
04970														2.035766	-10.524390	-2.681766	0.977711	0.203607	0.051235	-0.195453	0.971783	-0.132048	-0.076675	0.119090	0.989918						
04971														2.547156	-9.224032	-2.582691	0.967741	0.246685	0.051234	-0.239637	0.964010	-0.115148	-0.077795	0.099156	0.992026						
04972														1.887154	-9.507130	-2.068997	0.957242	0.283350	0.058312	-0.276655	0.955566	-0.101763	-0.084556	0.081279	0.993098						
04973														0.817544	-9.598012	-1.560142	0.947742	0.311222	0.070186	-0.304947	0.948349	-0.087416	-0.093767	0.061445	0.993696						
04974														0.551482	-9.274058	-0.871490	0.939098	0.331869	0.089207	-0.325896	0.942410	-0.075198	-0.109025	0.041546	0.993170						
04975														0.898227	-10.071397	-1.001889	0.929750	0.350737	0.112021	-0.345749	0.936285	-0.061867	-0.126583	0.018790	0.991778						
04976														1.293017	-10.907252	-0.726158	0.922145	0.363372	0.132699	-0.360612	0.931623	-0.045138	-0.140028	-0.006230	0.990128						
04977														0.844598	-11.214990	-1.142191	0.916436	0.370857	0.150365	-0.371514	0.928097	-0.024756	-0.148734	-0.033175	0.988321						
04978														1.056898	-10.613666	-0.881362	0.909983	0.380951	0.163729	-0.385691	0.922623	-0.003068	-0.152229	-0.060357	0.986501						
04979														1.863461	-9.875249	-0.610882	0.903901	0.390354	0.174889	-0.399254	0.916674	0.017493	-0.153488	-0.085637	0.984433						
04980														2.009886	-9.021423	-0.608577	0.900594	0.393499	0.184632	-0.406444	0.912932	0.036845	-0.154058	-0.108225	0.982117						
04981														1.874512	-8.477158	-0.795053	0.898684	0.393884	0.192932	-0.410548	0.910236	0.054037	-0.154329	-0.127770	0.979723						
04982														1.635163	-7.880365	-0.634703	0.897078	0.393894	0.200247	-0.414078	0.907561	0.069802	-0.154242	-0.145535	0.977256						
04983														1.581696	-7.891061	-0.055549	0.895727	0.392602	0.208657	-0.416185	0.905497	0.082859	-0.156408	-0.161059	0.974473						
04984														1.449872	-8.147470	-0.094221	0.894847	0.389666	0.217738	-0.416788	0.904021	0.095044	-0.159805	-0.175801	0.971368						
04985														1.367065	-8.229915	-0.526509	0.893377	0.388662	0.225430	-0.418773	0.902078	0.104332	-0.162806	-0.187612	0.968657						
04986														1.409571	-8.408322	-0.946369	0.892497	0.387795	0.230355	-0.419922	0.900810	0.110483	-0.164662	-0.195337	0.966814						
04987														1.563181	-8.785460	-0.833121	0.893770	0.383731	0.232218	-0.416941	0.901656	0.114790	-0.165332	-0.199418	0.965866						
04988														1.948135	-9.062956	-0.145337	0.896990	0.376758	0.231221	-0.409836	0.904806	0.115588	-0.165661	-0.198443	0.966011						
04989														2.095663	-8.985022	0.063383	0.901741	0.367873	0.227008	-0.399019	0.910349	0.109770	-0.166275	-0.189564	0.967687						
04990														1.912538	-9.180313	-0.221689	0.908364	0.355979	0.219441	-0.383450	0.918409	0.097422	-0.166857	-0.172640	0.970749						
04991														1.787324	-9.475575	0.347933	0.916215	0.341223	0.210039	-0.364307	0.927651	0.082118	-0.166822	-0.151757	0.974238						
04992														1.521671	-9.603778	1.043039	0.924863	0.323298	0.200268	-0.341914	0.937433	0.065680	-0.166503	-0.129220	0.977537						
04993														1.451765	-10.515926	1.622446	0.932617	0.305641	0.191859	-0.319353	0.946596	0.044385	-0.168047	-0.102665	0.980418						
04994														2.197058	-11.481965	0.479654	0.939253	0.289764	0.183960	-0.298927	0.953984	0.023581	-0.168662	-0.077139	0.982651						
04995														2.435713	-10.472108	-0.388627	0.947315	0.269853	0.172552	-0.274393	0.961614	0.002565	-0.165237	-0.049777	0.984997						
04996														1.579721	-11.187998	-0.355742	0.953843	0.251889	0.163510	-0.251721	0.967548	-0.022092	-0.163768	-0.020086	0.986294						
04997														2.231945	-12.254177	-0.270742	0.958312	0.241331	0.152963	-0.237887	0.970439	-0.040711	-0.158266	0.002626	0.987393						
04998														3.798959	-10.869731	-0.999830	0.963522	0.229775	0.137216	-0.224995	0.973097	-0.049599	-0.144921	0.016917	0.989299						
04999														4.542479	-8.944890	-2.301246	0.971261	0.204318	0.122091	-0.198209	0.978298	-0.060381	-0.131778	0.034446	0.990681						
05000														4.655313	-8.502416	-2.149285	0.979226	0.168286	0.113118	-0.160410	0.984157	-0.075516	-0.124034	0.055802	0.990708						
