// General information: 
//  MT Manager version: 2022.2.0 
//  XDA version: 2022.2.0 build 7381 rev 124627 built on 2023-07-19
// Device information: 
//  DeviceId: 00B4D4A7
//  ProductCode: MTW2-3A7G6
//  Firmware Version: 4.6.0
//  Hardware Version: 2.0.0
// Device settings: 
//  Filter Profile: human(46.1)
//  Option Flags: Orientation Smoother Disabled, Position/Velocity Smoother Disabled, Continuous Zero Rotation Update Disabled, AHS Disabled, ICC Disabled
// Coordinate system: ENU
PacketCounter	SampleTimeFine	Year	Month	Day	Second	UTC_Nano	UTC_Year	UTC_Month	UTC_Day	UTC_Hour	UTC_Minute	UTC_Second	UTC_Valid	Acc_X	Acc_Y	Acc_Z	Mat[1][1]	Mat[2][1]	Mat[3][1]	Mat[1][2]	Mat[2][2]	Mat[3][2]	Mat[1][3]	Mat[2][3]	Mat[3][3]	Latitude	Longitude	Altitude	Vel_E	Vel_N	Vel_U
04221														-1.079013	-5.811197	7.849537	0.999622	-0.027362	-0.002645	0.027353	0.999620	-0.003465	0.002739	0.003391	0.999990						
04222														-1.091039	-5.769729	7.847040	0.999608	-0.027864	-0.002594	0.027855	0.999605	-0.003694	0.002696	0.003620	0.999990						
04223														-1.119158	-5.796267	7.853624	0.999592	-0.028435	-0.002566	0.028425	0.999588	-0.003989	0.002679	0.003915	0.999989						
04224														-1.105246	-5.793256	7.849235	0.999574	-0.029093	-0.002468	0.029082	0.999568	-0.004348	0.002594	0.004274	0.999988						
04225														-1.093513	-5.789151	7.831062	0.999557	-0.029670	-0.002447	0.029658	0.999549	-0.004717	0.002585	0.004642	0.999986						
04226														-1.100745	-5.822018	7.840282	0.999541	-0.030201	-0.002377	0.030189	0.999532	-0.005034	0.002528	0.004960	0.999985						
04227														-1.123287	-5.819253	7.834714	0.999520	-0.030900	-0.002309	0.030887	0.999509	-0.005329	0.002473	0.005255	0.999983						
04228														-1.106328	-5.806443	7.831269	0.999502	-0.031498	-0.002139	0.031486	0.999489	-0.005581	0.002313	0.005510	0.999982						
04229														-1.086515	-5.814863	7.832258	0.999482	-0.032128	-0.002038	0.032115	0.999467	-0.005875	0.002226	0.005806	0.999981						
04230														-1.126903	-5.826990	7.828441	0.999463	-0.032717	-0.001935	0.032705	0.999447	-0.006034	0.002131	0.005967	0.999980						
04231														-1.118287	-5.802121	7.842161	0.999446	-0.033250	-0.001759	0.033239	0.999428	-0.006238	0.001966	0.006176	0.999979						
04232														-1.086956	-5.842459	7.831477	0.999426	-0.033828	-0.001598	0.033817	0.999408	-0.006408	0.001814	0.006350	0.999978						
04233														-1.074096	-5.836200	7.815050	0.999408	-0.034382	-0.001409	0.034372	0.999389	-0.006405	0.001629	0.006353	0.999978						
04234														-1.056864	-5.820940	7.813502	0.999395	-0.034768	-0.001308	0.034759	0.999376	-0.006325	0.001527	0.006276	0.999979						
04235														-1.084667	-5.833631	7.809216	0.999376	-0.035305	-0.001328	0.035296	0.999358	-0.006171	0.001545	0.006120	0.999980						
04236														-1.075550	-5.807218	7.838515	0.999361	-0.035730	-0.001370	0.035721	0.999344	-0.005955	0.001582	0.005902	0.999981						
04237														-1.112479	-5.797239	7.838041	0.999343	-0.036208	-0.001442	0.036199	0.999328	-0.005840	0.001652	0.005784	0.999982						
04238														-1.118643	-5.797323	7.859491	0.999324	-0.036739	-0.001456	0.036730	0.999309	-0.005749	0.001666	0.005691	0.999982						
04239														-1.106646	-5.810256	7.834161	0.999306	-0.037237	-0.001378	0.037228	0.999290	-0.005869	0.001596	0.005813	0.999982						
04240														-1.099293	-5.823073	7.816317	0.999286	-0.037755	-0.001208	0.037747	0.999269	-0.005981	0.001433	0.005931	0.999981						
04241														-1.077852	-5.811697	7.841175	0.999263	-0.038357	-0.001100	0.038350	0.999246	-0.006035	0.001331	0.005988	0.999981						
04242														-1.067987	-5.834017	7.815321	0.999247	-0.038778	-0.001060	0.038771	0.999230	-0.005993	0.001292	0.005947	0.999981						
04243														-1.097871	-5.798389	7.851333	0.999236	-0.039079	-0.001075	0.039072	0.999219	-0.005879	0.001304	0.005832	0.999982						
04244														-1.089556	-5.810670	7.848361	0.999218	-0.039529	-0.001056	0.039522	0.999202	-0.005742	0.001282	0.005696	0.999983						
04245														-1.073297	-5.814640	7.837891	0.999206	-0.039832	-0.001089	0.039826	0.999191	-0.005660	0.001314	0.005613	0.999983						
04246														-1.095042	-5.790442	7.857178	0.999193	-0.040144	-0.001108	0.040137	0.999178	-0.005622	0.001332	0.005573	0.999984						
04247														-1.086647	-5.823484	7.844254	0.999176	-0.040576	-0.001151	0.040569	0.999161	-0.005660	0.001379	0.005609	0.999983						
04248														-1.105240	-5.799636	7.841325	0.999155	-0.041073	-0.001208	0.041065	0.999140	-0.005710	0.001441	0.005655	0.999983						
04249														-1.092128	-5.814111	7.829369	0.999139	-0.041472	-0.001290	0.041464	0.999124	-0.005722	0.001526	0.005663	0.999983						
04250														-1.111431	-5.800540	7.839781	0.999115	-0.042048	-0.001375	0.042040	0.999100	-0.005657	0.001611	0.005594	0.999983						
04251														-1.095846	-5.816177	7.841666	0.999095	-0.042522	-0.001349	0.042514	0.999080	-0.005702	0.001590	0.005640	0.999983						
04252														-1.098467	-5.797168	7.849989	0.999072	-0.043041	-0.001338	0.043033	0.999057	-0.005731	0.001583	0.005668	0.999983						
04253														-1.103386	-5.807527	7.848342	0.999057	-0.043403	-0.001349	0.043394	0.999041	-0.005823	0.001600	0.005759	0.999982						
04254														-1.086747	-5.832973	7.827440	0.999036	-0.043886	-0.001358	0.043877	0.999019	-0.005927	0.001617	0.005861	0.999982						
04255														-1.105087	-5.820367	7.837259	0.999019	-0.044257	-0.001322	0.044249	0.999003	-0.006003	0.001587	0.005939	0.999981						
04256														-1.090786	-5.804527	7.821498	0.999002	-0.044649	-0.001261	0.044641	0.998985	-0.006052	0.001530	0.005989	0.999981						
04257														-1.101718	-5.804858	7.850162	0.998985	-0.045025	-0.001249	0.045017	0.998968	-0.006086	0.001522	0.006023	0.999981						
04258														-1.070081	-5.815092	7.849910	0.998966	-0.045436	-0.001252	0.045427	0.998949	-0.006159	0.001530	0.006095	0.999980						
04259														-1.107863	-5.844688	7.816159	0.998947	-0.045851	-0.001278	0.045842	0.998930	-0.006176	0.001560	0.006111	0.999980						
04260														-1.094369	-5.808421	7.810069	0.998933	-0.046165	-0.001250	0.046157	0.998915	-0.006123	0.001531	0.006058	0.999980						
04261														-1.089915	-5.812954	7.850442	0.998909	-0.046686	-0.001176	0.046678	0.998892	-0.006069	0.001458	0.006008	0.999981						
04262														-1.072999	-5.836920	7.830688	0.998888	-0.047134	-0.001198	0.047126	0.998871	-0.005927	0.001476	0.005864	0.999982						
04263														-1.101195	-5.818204	7.822936	0.998869	-0.047538	-0.001178	0.047531	0.998853	-0.005709	0.001448	0.005647	0.999983						
04264														-1.082996	-5.803232	7.835856	0.998852	-0.047887	-0.001172	0.047880	0.998838	-0.005519	0.001435	0.005457	0.999984						
04265														-1.091173	-5.812001	7.857317	0.998834	-0.048259	-0.001139	0.048252	0.998821	-0.005302	0.001394	0.005241	0.999985						
04266														-1.082770	-5.793068	7.851090	0.998818	-0.048589	-0.001164	0.048582	0.998806	-0.005106	0.001411	0.005043	0.999986						
04267														-1.107514	-5.788457	7.883140	0.998796	-0.049048	-0.001201	0.049041	0.998784	-0.005026	0.001446	0.004961	0.999987						
04268														-1.121809	-5.784081	7.849290	0.998777	-0.049426	-0.001186	0.049419	0.998764	-0.005252	0.001444	0.005187	0.999986						
04269														-1.121089	-5.796984	7.838506	0.998760	-0.049776	-0.001168	0.049769	0.998745	-0.005538	0.001442	0.005473	0.999984						
04270														-1.089032	-5.828342	7.828135	0.998737	-0.050227	-0.001143	0.050219	0.998722	-0.005663	0.001426	0.005598	0.999983						
04271														-1.088666	-5.800612	7.836681	0.998718	-0.050603	-0.001076	0.050596	0.998703	-0.005770	0.001367	0.005708	0.999983						
04272														-1.093102	-5.811378	7.834774	0.998698	-0.050997	-0.001031	0.050990	0.998682	-0.005879	0.001330	0.005819	0.999982						
04273														-1.081870	-5.816058	7.831216	0.998680	-0.051346	-0.000985	0.051339	0.998664	-0.005940	0.001289	0.005881	0.999982						
04274														-1.088674	-5.804973	7.825429	0.998660	-0.051748	-0.000921	0.051741	0.998643	-0.005948	0.001228	0.005893	0.999982						
04275														-1.078960	-5.810965	7.857500	0.998644	-0.052047	-0.000930	0.052040	0.998627	-0.005932	0.001238	0.005875	0.999982						
04276														-1.088406	-5.797886	7.838430	0.998628	-0.052351	-0.000923	0.052344	0.998612	-0.005906	0.001231	0.005849	0.999982						
04277														-1.108512	-5.802506	7.826131	0.998603	-0.052839	-0.000908	0.052833	0.998586	-0.005868	0.001216	0.005811	0.999982						
04278														-1.089541	-5.808707	7.828916	0.998584	-0.053186	-0.000803	0.053180	0.998568	-0.005814	0.001111	0.005763	0.999983						
04279														-1.071366	-5.806064	7.853889	0.998566	-0.053536	-0.000787	0.053531	0.998549	-0.005782	0.001096	0.005732	0.999983						
04280														-1.089118	-5.801402	7.842110	0.998555	-0.053733	-0.000844	0.053727	0.998539	-0.005786	0.001154	0.005732	0.999983						
04281														-1.084693	-5.804895	7.846528	0.998533	-0.054129	-0.000962	0.054122	0.998517	-0.005918	0.001281	0.005857	0.999982						
04282														-1.080477	-5.817838	7.828174	0.998521	-0.054346	-0.001227	0.054338	0.998504	-0.006083	0.001556	0.006008	0.999981						
04283														-1.099499	-5.807213	7.850767	0.998503	-0.054667	-0.001525	0.054656	0.998485	-0.006289	0.001867	0.006197	0.999979						
04284														-1.091054	-5.821222	7.824191	0.998479	-0.055103	-0.001875	0.055090	0.998461	-0.006421	0.002226	0.006308	0.999978						
04285														-1.122486	-5.815042	7.827581	0.998457	-0.055482	-0.002104	0.055468	0.998440	-0.006441	0.002458	0.006314	0.999977						
04286														-1.092479	-5.794500	7.823807	0.998433	-0.055910	-0.002256	0.055895	0.998416	-0.006450	0.002613	0.006314	0.999977						
04287														-1.086586	-5.818850	7.832733	0.998413	-0.056262	-0.002438	0.056245	0.998396	-0.006470	0.002799	0.006322	0.999976						
04288														-1.098179	-5.816957	7.826097	0.998388	-0.056694	-0.002592	0.056676	0.998371	-0.006516	0.002957	0.006359	0.999975						
04289														-1.125569	-5.820587	7.821382	0.998369	-0.057021	-0.002775	0.057002	0.998353	-0.006466	0.003139	0.006298	0.999975						
04290														-1.108732	-5.806903	7.833412	0.998349	-0.057374	-0.002862	0.057355	0.998333	-0.006401	0.003224	0.006226	0.999975						
04291														-1.120330	-5.815057	7.840393	0.998328	-0.057727	-0.002985	0.057707	0.998314	-0.006306	0.003344	0.006123	0.999976						
04292														-1.109920	-5.807554	7.824752	0.998308	-0.058073	-0.003065	0.058053	0.998294	-0.006247	0.003423	0.006059	0.999976						
04293														-1.096186	-5.794387	7.858431	0.998295	-0.058281	-0.003177	0.058261	0.998282	-0.006172	0.003531	0.005976	0.999976						
04294														-1.140836	-5.802015	7.842056	0.998276	-0.058602	-0.003286	0.058581	0.998263	-0.006191	0.003643	0.005988	0.999975						
04295														-1.147356	-5.803246	7.862647	0.998253	-0.058991	-0.003307	0.058969	0.998240	-0.006237	0.003669	0.006031	0.999975						
04296														-1.121477	-5.798304	7.808869	0.998238	-0.059251	-0.003317	0.059229	0.998225	-0.006289	0.003684	0.006081	0.999975						
04297														-1.120749	-5.813107	7.847961	0.998216	-0.059618	-0.003374	0.059596	0.998203	-0.006309	0.003744	0.006097	0.999974						
04298														-1.131121	-5.810951	7.841644	0.998195	-0.059966	-0.003408	0.059944	0.998182	-0.006275	0.003779	0.006059	0.999975						
04299														-1.151536	-5.795964	7.838320	0.998174	-0.060303	-0.003390	0.060281	0.998161	-0.006328	0.003765	0.006112	0.999974						
04300														-1.148769	-5.808899	7.842204	0.998152	-0.060666	-0.003354	0.060644	0.998139	-0.006398	0.003736	0.006183	0.999974						
04301														-1.111595	-5.800904	7.843453	0.998136	-0.060931	-0.003322	0.060909	0.998123	-0.006427	0.003708	0.006213	0.999974						
04302														-1.118478	-5.809265	7.828472	0.998123	-0.061144	-0.003318	0.061121	0.998110	-0.006414	0.003704	0.006199	0.999974						
04303														-1.131776	-5.807951	7.843553	0.998104	-0.061457	-0.003297	0.061434	0.998090	-0.006485	0.003689	0.006271	0.999974						
04304														-1.117165	-5.811989	7.818634	0.998092	-0.061657	-0.003257	0.061635	0.998077	-0.006528	0.003653	0.006314	0.999973						
04305														-1.117743	-5.805695	7.853485	0.998073	-0.061972	-0.003181	0.061950	0.998058	-0.006590	0.003583	0.006381	0.999973						
04306														-1.132940	-5.818939	7.796955	0.998056	-0.062237	-0.003121	0.062216	0.998041	-0.006610	0.003527	0.006403	0.999973						
04307														-1.123100	-5.805283	7.838573	0.998037	-0.062546	-0.003036	0.062525	0.998022	-0.006531	0.003439	0.006328	0.999974						
04308														-1.104852	-5.822657	7.854300	0.998021	-0.062805	-0.002993	0.062785	0.998006	-0.006519	0.003397	0.006318	0.999974						
04309														-1.111785	-5.811326	7.848622	0.998001	-0.063129	-0.002986	0.063108	0.997985	-0.006559	0.003394	0.006358	0.999974						
04310														-1.111154	-5.802932	7.848306	0.997977	-0.063503	-0.002938	0.063482	0.997961	-0.006629	0.003353	0.006429	0.999974						
04311														-1.112149	-5.812804	7.825016	0.997958	-0.063815	-0.002872	0.063795	0.997941	-0.006694	0.003293	0.006497	0.999973						
04312														-1.106706	-5.816147	7.829780	0.997935	-0.064172	-0.002889	0.064151	0.997918	-0.006676	0.003312	0.006476	0.999974						
04313														-1.130234	-5.801692	7.848042	0.997912	-0.064520	-0.002812	0.064500	0.997895	-0.006711	0.003239	0.006516	0.999974						
04314														-1.107787	-5.808324	7.828802	0.997882	-0.064986	-0.002765	0.064966	0.997865	-0.006760	0.003198	0.006566	0.999973						
04315														-1.122576	-5.824919	7.821166	0.997862	-0.065294	-0.002688	0.065275	0.997845	-0.006700	0.003120	0.006510	0.999974						
04316														-1.116846	-5.788581	7.844899	0.997835	-0.065715	-0.002627	0.065696	0.997817	-0.006739	0.003064	0.006552	0.999974						
04317														-1.098947	-5.826696	7.850493	0.997813	-0.066043	-0.002631	0.066023	0.997795	-0.006849	0.003078	0.006660	0.999973						
04318														-1.104425	-5.813703	7.809303	0.997788	-0.066430	-0.002598	0.066411	0.997769	-0.006901	0.003050	0.006713	0.999973						
04319														-1.118199	-5.803925	7.846438	0.997782	-0.066524	-0.002541	0.066505	0.997762	-0.006981	0.002999	0.006797	0.999972						
04320														-1.109493	-5.818076	7.842290	0.997765	-0.066779	-0.002459	0.066760	0.997744	-0.007051	0.002924	0.006872	0.999972						
04321														-1.124944	-5.807016	7.865667	0.997738	-0.067186	-0.002378	0.067168	0.997716	-0.007185	0.002855	0.007009	0.999971						
04322														-1.126121	-5.828667	7.854672	0.997729	-0.067314	-0.002232	0.067295	0.997706	-0.007392	0.002725	0.007225	0.999970						
04323														-1.098936	-5.825024	7.800158	0.997713	-0.067562	-0.002172	0.067544	0.997687	-0.007590	0.002680	0.007426	0.999969						
04324														-1.098765	-5.847773	7.803009	0.997700	-0.067744	-0.002138	0.067726	0.997675	-0.007612	0.002649	0.007449	0.999969						
04325														-1.109725	-5.886346	7.813758	0.997700	-0.067751	-0.002090	0.067734	0.997676	-0.007353	0.002583	0.007194	0.999971						
04326														-1.121055	-5.840058	7.815073	0.997688	-0.067935	-0.002016	0.067920	0.997667	-0.006822	0.002475	0.006669	0.999975						
04327														-1.148930	-5.648265	7.857805	0.997663	-0.068305	-0.001841	0.068291	0.997645	-0.006408	0.002275	0.006268	0.999978						
04328														-1.100387	-5.796563	7.875184	0.997644	-0.068584	-0.001529	0.068573	0.997624	-0.006602	0.001978	0.006482	0.999977						
04329														-1.066848	-5.813723	7.803427	0.997630	-0.068792	-0.001464	0.068780	0.997609	-0.006795	0.001928	0.006679	0.999976						
04330														-1.044547	-5.750946	7.798942	0.997612	-0.069046	-0.001602	0.069034	0.997591	-0.006864	0.002072	0.006737	0.999975						
04331														-1.109792	-5.723025	7.893103	0.997591	-0.069348	-0.001867	0.069332	0.997565	-0.007508	0.002383	0.007360	0.999970						
04332														-0.379357	-6.781705	7.181288	0.997562	-0.069766	-0.001411	0.069752	0.997529	-0.008430	0.001995	0.008311	0.999963						
04333														-0.075913	-8.416988	6.049219	0.997534	-0.070175	-0.001493	0.070157	0.997487	-0.009843	0.002180	0.009714	0.999950						
04334														-1.116859	-5.928231	7.681704	0.997517	-0.070384	-0.002362	0.070355	0.997465	-0.010703	0.003109	0.010511	0.999940						
04335														-1.501588	-5.019477	8.364900	0.997499	-0.070599	-0.003378	0.070557	0.997444	-0.011298	0.004167	0.011031	0.999930						
04336														-1.214880	-5.744940	7.832520	0.997470	-0.070978	-0.004034	0.070926	0.997410	-0.011975	0.004874	0.011659	0.999920						
04337														-1.063947	-6.085658	7.772420	0.997416	-0.071692	-0.004568	0.071622	0.997333	-0.014028	0.005562	0.013665	0.999891						
04338														-1.120093	-6.276003	7.619443	0.997333	-0.072821	-0.004822	0.072725	0.997194	-0.017733	0.006100	0.017335	0.999831						
04339														-0.758905	-6.997062	7.125404	0.997265	-0.073794	-0.004231	0.073683	0.997036	-0.022116	0.005850	0.021744	0.999746						
04340														-0.547121	-6.989822	7.090126	0.997204	-0.074633	-0.003716	0.074506	0.996857	-0.026934	0.005714	0.026582	0.999630						
04341														-1.005530	-6.542746	7.372550	0.997147	-0.075416	-0.003267	0.075271	0.996637	-0.032375	0.005698	0.032037	0.999470						
04342														-1.241375	-6.123654	7.622826	0.997068	-0.076494	-0.002175	0.076357	0.996357	-0.037972	0.005072	0.037695	0.999276						
04343														-1.364756	-5.881958	7.626904	0.996971	-0.077768	-0.000534	0.077676	0.996077	-0.042397	0.003829	0.042227	0.999101						
04344														-1.308872	-5.905458	7.607752	0.996852	-0.079260	0.001792	0.079259	0.995803	-0.045772	0.001843	0.045770	0.998950						
04345														-0.861079	-6.268893	7.558143	0.996739	-0.080581	0.004222	0.080692	0.995530	-0.049075	-0.000249	0.049256	0.998786						
04346														-0.634293	-6.410395	7.396423	0.996667	-0.081398	0.005410	0.081570	0.995293	-0.052329	-0.001125	0.052596	0.998615						
04347														-0.838268	-6.202712	7.488528	0.996629	-0.081846	0.005558	0.082028	0.995110	-0.055027	-0.001027	0.055297	0.998469						
04348														-1.185639	-6.068853	7.542378	0.996590	-0.082318	0.005602	0.082504	0.994953	-0.057119	-0.000872	0.057386	0.998352						
04349														-1.162663	-6.224670	7.530615	0.996548	-0.082774	0.006336	0.083004	0.994793	-0.059141	-0.001408	0.059462	0.998230						
04350														-0.892888	-6.389065	7.509096	0.996504	-0.083248	0.007064	0.083525	0.994606	-0.061502	-0.001906	0.061877	0.998082						
04351														-0.849198	-6.201522	7.474329	0.996489	-0.083434	0.007011	0.083712	0.994449	-0.063751	-0.001653	0.064114	0.997941						
04352														-0.922626	-6.242985	7.486684	0.996511	-0.083234	0.006196	0.083461	0.994341	-0.065724	-0.000691	0.066011	0.997819						
04353														-0.648427	-7.348189	6.618044	0.996513	-0.083242	0.005624	0.083432	0.994217	-0.067613	0.000037	0.067847	0.997696						
04354														-0.267332	-7.540993	6.303569	0.996518	-0.083203	0.005327	0.083373	0.994140	-0.068809	0.000429	0.069013	0.997616						
04355														-0.546232	-6.920646	6.729858	0.996557	-0.082800	0.004336	0.082903	0.994221	-0.068202	0.001336	0.068326	0.997662						
04356														-0.716138	-6.900577	6.715255	0.996626	-0.082022	0.003062	0.082047	0.994498	-0.065135	0.002297	0.065166	0.997872						
04357														-1.051878	-6.173097	7.343955	0.996694	-0.081243	0.001152	0.081166	0.994906	-0.059776	0.003710	0.059672	0.998211						
04358														-1.423996	-6.147279	7.623624	0.996741	-0.080664	-0.000475	0.080525	0.995340	-0.053043	0.004752	0.052832	0.998592						
04359														-1.179892	-6.299423	7.753082	0.996770	-0.080295	-0.001524	0.080134	0.995667	-0.047174	0.005305	0.046900	0.998886						
04360														-1.000873	-6.194589	8.004385	0.996765	-0.080333	-0.002458	0.080147	0.995806	-0.044118	0.005992	0.043778	0.999023						
04361														-1.431699	-5.589604	8.306599	0.996750	-0.080507	-0.002983	0.080295	0.995777	-0.044518	0.006554	0.044134	0.999004						
04362														-1.486042	-5.572583	8.090331	0.996730	-0.080768	-0.002531	0.080559	0.995632	-0.047200	0.006332	0.046842	0.998882						
04363														-1.126482	-6.144490	7.683448	0.996702	-0.081138	-0.001282	0.080962	0.995364	-0.051920	0.005488	0.051645	0.998650						
04364														-0.861453	-6.333486	7.484239	0.996688	-0.081317	-0.000202	0.081170	0.995028	-0.057711	0.004894	0.057504	0.998333						
04365														-1.129782	-6.268014	7.399684	0.996686	-0.081339	0.000981	0.081237	0.994672	-0.063467	0.004186	0.063336	0.997983						
04366														-1.320419	-6.148694	7.334261	0.996668	-0.081507	0.002963	0.081521	0.994368	-0.067719	0.002574	0.067735	0.997700						
04367														-1.043500	-6.422046	7.140358	0.996636	-0.081757	0.005684	0.081955	0.994159	-0.070220	0.000090	0.070449	0.997515						
04368														-0.950634	-6.446843	7.259545	0.996600	-0.081919	0.008808	0.082341	0.994012	-0.071834	-0.002871	0.072315	0.997378						
04369														-0.486425	-7.090289	7.015900	0.996547	-0.082155	0.012050	0.082825	0.993813	-0.073998	-0.005896	0.074741	0.997186						
04370														-0.344891	-7.400065	6.900395	0.996512	-0.082243	0.014163	0.083102	0.993486	-0.077966	-0.007659	0.078872	0.996855						
04371														-1.075831	-6.910060	7.648576	0.996492	-0.082089	0.016283	0.083179	0.992932	-0.084665	-0.009218	0.085723	0.996276						
04372														-1.851002	-6.504543	8.371486	0.996385	-0.082229	0.021349	0.083934	0.991665	-0.097752	-0.013133	0.099191	0.994982						
04373														-2.307162	-5.321419	9.662018	0.995882	-0.085220	0.030943	0.088405	0.988472	-0.122914	-0.020112	0.125143	0.991935						
04374														-2.131783	-4.976435	10.948448	0.994789	-0.091661	0.044653	0.097849	0.981353	-0.165443	-0.028656	0.168950	0.985208						
04375														-1.383542	-6.057773	10.890053	0.993157	-0.098569	0.062629	0.110379	0.967442	-0.227754	-0.038141	0.233108	0.971703						
04376														-1.079546	-7.184946	9.661397	0.990985	-0.105560	0.082501	0.126198	0.942231	-0.310280	-0.044981	0.317895	0.947058						
04377														-2.347939	-7.958141	9.535036	0.987804	-0.115905	0.103964	0.148488	0.902140	-0.405086	-0.046839	0.415583	0.908349						
04378														-4.179939	-8.997056	9.720223	0.982714	-0.119847	0.141104	0.175227	0.848096	-0.500029	-0.059743	0.516110	0.854436						
04379														-5.076703	-9.393081	7.755379	0.975123	-0.109713	0.192609	0.203175	0.789802	-0.578733	-0.088629	0.603469	0.792445						
04380														-0.451894	-11.915678	12.076362	0.968933	-0.094566	0.228530	0.219604	0.753993	-0.619087	-0.113766	0.650040	0.751336						
04381														-6.058556	-0.866301	9.346332	0.970145	-0.097733	0.221961	0.216168	0.763391	-0.608692	-0.109954	0.638500	0.761727						
04382														-1.490083	0.257832	6.895588	0.972701	-0.096050	0.211252	0.206049	0.776246	-0.595807	-0.106756	0.623070	0.774846						
04383														-2.594870	-0.295771	7.315677	0.977256	-0.097753	0.188190	0.190033	0.797541	-0.572552	-0.094120	0.595292	0.797978						
04384														-1.746646	-1.237135	6.809102	0.983409	-0.093414	0.155503	0.164159	0.823052	-0.543726	-0.077196	0.560232	0.824731						
04385														-1.508184	-4.885682	7.786378	0.989903	-0.085721	0.112886	0.131559	0.852077	-0.506613	-0.052760	0.516349	0.854752						
04386														-0.497782	-8.584362	7.619659	0.994388	-0.081890	0.066980	0.103370	0.886832	-0.450382	-0.022518	0.454778	0.890320						
04387														0.444065	-10.198878	6.052898	0.996766	-0.077183	0.022350	0.079911	0.922997	-0.376419	0.008424	0.376988	0.926180						
04388														1.513737	-10.919382	5.612159	0.997436	-0.070142	-0.014186	0.062796	0.952949	-0.296555	0.034319	0.294904	0.954911						
04389														1.944233	-12.136655	5.513114	0.996798	-0.067465	-0.042916	0.056688	0.974803	-0.215743	0.056390	0.212620	0.975507						
04390														1.997265	-13.891894	4.442098	0.995545	-0.068159	-0.065155	0.058742	0.988844	-0.136884	0.073759	0.132447	0.988442						
04391														1.893623	-14.094035	3.001884	0.993596	-0.073671	-0.085672	0.068281	0.995596	-0.064235	0.090027	0.057973	0.994251						
04392														1.540008	-14.100529	1.902615	0.991238	-0.082366	-0.103259	0.082290	0.996596	-0.005001	0.103319	-0.003540	0.994642						
04393														0.810937	-15.146888	-0.189735	0.988185	-0.096448	-0.119117	0.101796	0.994015	0.039646	0.114580	-0.051303	0.992088						
04394														-4.603521	-16.505244	-4.386920	0.986563	-0.113589	-0.117435	0.120991	0.990961	0.057935	0.109793	-0.071365	0.991389						
04395														1.478827	-22.146966	-4.732126	0.990844	-0.119585	-0.062674	0.122236	0.991682	0.040323	0.057331	-0.047615	0.997219						
04396														6.735374	-7.315257	12.325099	0.992706	-0.118235	-0.023559	0.119003	0.992299	0.034374	0.019314	-0.036927	0.999131						
04397														-0.236671	-3.280586	11.546179	0.992322	-0.122243	-0.018825	0.122632	0.992228	0.021097	0.016100	-0.023243	0.999600						
04398														-1.249069	-7.148890	9.029707	0.992359	-0.122932	-0.010569	0.122992	0.992394	0.005236	0.009845	-0.006495	0.999930						
04399														-0.526757	-8.146131	6.713172	0.992294	-0.123404	-0.011117	0.123369	0.992353	-0.003830	0.011505	0.002429	0.999931						
04400														-1.395936	-6.889790	7.382901	0.992230	-0.123760	-0.012754	0.123631	0.992273	-0.010473	0.013951	0.008815	0.999864						
04401														-2.429549	-5.396886	8.306982	0.992200	-0.124109	-0.011678	0.123922	0.992170	-0.015584	0.013521	0.014015	0.999810						
04402														-1.598792	-5.967228	7.925767	0.992200	-0.124351	-0.008711	0.124161	0.992066	-0.019725	0.011095	0.018490	0.999767						
04403														-1.041704	-6.662135	7.381270	0.992221	-0.124375	-0.005293	0.124219	0.991976	-0.023503	0.008174	0.022662	0.999710						
04404														-1.047240	-6.018617	7.990067	0.992211	-0.124548	-0.002198	0.124437	0.991829	-0.028100	0.005680	0.027608	0.999603						
04405														-1.418882	-5.477074	8.243596	0.992177	-0.124840	0.000647	0.124792	0.991622	-0.033365	0.003524	0.033184	0.999443						
04406														-1.028687	-6.250905	7.687369	0.992149	-0.125015	0.003475	0.125055	0.991384	-0.038965	0.001426	0.039094	0.999235						
04407														-0.737385	-6.519008	7.429458	0.992129	-0.125072	0.006161	0.125223	0.991113	-0.044887	-0.000492	0.045306	0.998973						
04408														-0.931954	-6.097558	7.658405	0.992118	-0.125027	0.008385	0.125292	0.990825	-0.050664	-0.001974	0.051315	0.998681						
04409														-1.038998	-6.190078	7.491935	0.992051	-0.125458	0.009801	0.125811	0.990491	-0.055677	-0.002723	0.056467	0.998401						
04410														-1.103318	-6.202326	7.457177	0.991953	-0.126121	0.011077	0.126559	0.990173	-0.059499	-0.003464	0.060422	0.998167						
04411														-0.906961	-6.437725	7.318991	0.991819	-0.127051	0.012355	0.127577	0.989869	-0.062313	-0.004313	0.063379	0.997980						
04412														-0.601881	-6.394806	7.431268	0.991705	-0.127885	0.012923	0.128456	0.989617	-0.064471	-0.004543	0.065596	0.997836						
04413														-1.008623	-6.156876	7.580490	0.991601	-0.128711	0.012701	0.129273	0.989391	-0.066281	-0.004035	0.067366	0.997720						
04414														-0.903926	-6.308311	7.521181	0.991479	-0.129664	0.012507	0.130219	0.989122	-0.068416	-0.003500	0.069461	0.997579						
04415														-1.075510	-6.212985	7.533709	0.991349	-0.130654	0.012557	0.131219	0.988794	-0.071195	-0.003114	0.072227	0.997383						
04416														-0.995306	-6.149945	7.605459	0.991212	-0.131660	0.012856	0.132254	0.988417	-0.074438	-0.002907	0.075484	0.997143						
04417														-0.853872	-6.492303	7.383816	0.991049	-0.132816	0.013504	0.133468	0.987954	-0.078311	-0.002941	0.079412	0.996838						
04418														-0.859598	-6.436155	7.347543	0.990984	-0.133246	0.014027	0.133952	0.987557	-0.082390	-0.002874	0.083526	0.996501						
04419														-1.083138	-6.337329	7.355527	0.990897	-0.133773	0.015103	0.134581	0.987132	-0.086366	-0.003355	0.087612	0.996149						
04420														-1.053710	-6.343352	7.389592	0.990768	-0.134493	0.017032	0.135489	0.986618	-0.090703	-0.004605	0.092173	0.995732						
04421														-0.751772	-6.403514	7.460584	0.990619	-0.135358	0.018768	0.136540	0.985998	-0.095735	-0.005547	0.097399	0.995230						
04422														-0.662930	-6.753240	7.354754	0.990518	-0.136023	0.019286	0.137288	0.985274	-0.101918	-0.005139	0.103599	0.994606						
04423														-0.590997	-6.681330	7.893851	0.990532	-0.136130	0.017729	0.137257	0.984416	-0.109936	-0.002487	0.111328	0.993781						
04424														-1.633833	-5.963092	9.123627	0.990768	-0.134603	0.016141	0.135564	0.982867	-0.124877	0.000944	0.125912	0.992041						
04425														-2.528250	-5.072680	9.942494	0.990343	-0.137653	0.016511	0.138551	0.978398	-0.153428	0.004965	0.154234	0.988022						
04426														-1.755292	-5.697331	10.835880	0.989365	-0.144175	0.019249	0.145101	0.969068	-0.199630	0.010128	0.200300	0.979682						
04427														-2.180672	-5.899375	10.577663	0.988226	-0.150386	0.028167	0.152392	0.951059	-0.268818	0.013638	0.269945	0.962779						
04428														-1.220482	-7.643587	10.012245	0.986786	-0.156833	0.040702	0.160958	0.919996	-0.357351	0.018599	0.359180	0.933083						
04429														-3.433619	-9.204584	9.016728	0.984756	-0.164066	0.057779	0.172349	0.875461	-0.451514	0.023494	0.454589	0.890391						
04430														-6.208769	-10.160279	8.573104	0.983095	-0.157279	0.093742	0.183000	0.827406	-0.530952	0.005945	0.539131	0.842201						
04431														-1.832826	-9.795952	12.233075	0.981224	-0.139381	0.133310	0.191206	0.793562	-0.577667	-0.025275	0.592310	0.805313						
04432														-4.791280	-2.044249	10.164427	0.978390	-0.143396	0.148965	0.203618	0.793457	-0.573555	-0.035952	0.591493	0.805508						
04433														-3.436043	-1.237482	7.620495	0.976144	-0.143533	0.162915	0.211538	0.797796	-0.564600	-0.048934	0.585594	0.809126						
04434														-3.213932	-1.605425	7.615497	0.976908	-0.144575	0.157316	0.207942	0.812533	-0.544565	-0.049094	0.564703	0.823833						
04435														-1.868229	-1.960495	7.142582	0.979377	-0.145281	0.140406	0.197508	0.834810	-0.513889	-0.042554	0.531022	0.846289						
04436														-1.278629	-3.148542	7.681579	0.981360	-0.151932	0.117679	0.189896	0.860684	-0.472401	-0.029512	0.485943	0.873492						
04437														-0.778012	-4.381827	8.066643	0.982647	-0.161208	0.091747	0.184988	0.887993	-0.421009	-0.013600	0.430675	0.902405						
04438														-1.095635	-6.106208	8.103412	0.983693	-0.168419	0.063114	0.179829	0.914914	-0.361379	0.003119	0.366835	0.930281						
04439														-1.392787	-7.725207	7.294951	0.986623	-0.160179	0.030302	0.161876	0.940634	-0.298334	0.019284	0.299248	0.953980						
04440														-0.608954	-9.659863	6.566801	0.991410	-0.130719	-0.004386	0.125929	0.963067	-0.237998	0.035335	0.235401	0.971256						
04441														0.553780	-12.425592	6.673488	0.994775	-0.094529	-0.038553	0.086278	0.980334	-0.177486	0.054572	0.173233	0.983368						
04442														-0.208763	-13.063413	5.744676	0.995531	-0.068197	-0.065325	0.060579	0.991833	-0.112236	0.072446	0.107777	0.991532						
04443														-0.348698	-13.069017	3.697140	0.994982	-0.055386	-0.083324	0.051289	0.997404	-0.050541	0.085907	0.046014	0.995240						
04444														-0.366764	-13.260137	1.915746	0.993165	-0.057426	-0.101612	0.057673	0.998335	-0.000501	0.101472	-0.005363	0.994824						
04445														-0.544567	-13.609157	0.759605	0.989817	-0.072256	-0.122646	0.077009	0.996435	0.034460	0.119719	-0.043554	0.991852						
04446														-1.240918	-13.753169	-0.397240	0.985031	-0.091711	-0.145958	0.100795	0.993325	0.056092	0.139839	-0.069964	0.987699						
04447														-5.103619	-12.874924	-0.990316	0.981052	-0.105903	-0.162242	0.116928	0.991329	0.059960	0.154485	-0.077795	0.984928						
04448														-1.031121	-14.558787	-3.514337	0.987987	-0.105381	-0.113035	0.109264	0.993598	0.028711	0.109286	-0.040717	0.993176						
04449														5.585229	-11.565669	9.273188	0.993874	-0.106634	-0.029038	0.106719	0.994288	0.001405	0.028722	-0.004495	0.999577						
04450														7.992363	-9.717011	13.183497	0.994070	-0.108367	-0.009009	0.108319	0.994100	-0.005632	0.009567	0.004623	0.999944						
04451														-4.444775	-4.966197	9.399695	0.994070	-0.108369	-0.008959	0.108269	0.994061	-0.010956	0.010093	0.009921	0.999900						
04452														-0.099480	-7.726084	6.991862	0.994104	-0.108024	-0.009383	0.107835	0.993992	-0.018732	0.011350	0.017610	0.999781						
04453														0.025799	-7.523783	6.770096	0.994117	-0.107556	-0.012742	0.107225	0.993938	-0.024298	0.015278	0.022789	0.999624						
04454														-2.384463	-6.111710	7.676765	0.994123	-0.107239	-0.014776	0.106804	0.993897	-0.027605	0.017646	0.025865	0.999510						
04455														-1.456056	-5.699802	8.163901	0.994139	-0.106912	-0.016015	0.106394	0.993862	-0.030321	0.019158	0.028440	0.999412						
04456														-1.724913	-6.428016	7.708820	0.994171	-0.106614	-0.016075	0.106050	0.993826	-0.032606	0.019452	0.030711	0.999339						
04457														-1.090380	-6.721203	7.413073	0.994198	-0.106448	-0.015441	0.105869	0.993784	-0.034413	0.019008	0.032579	0.999288						
04458														-1.370347	-6.098663	7.692054	0.994220	-0.106300	-0.015062	0.105717	0.993770	-0.035300	0.018721	0.033503	0.999263						
04459														-1.444621	-5.930607	7.769761	0.994244	-0.106183	-0.014311	0.105623	0.993775	-0.035418	0.017983	0.033703	0.999270						
04460														-1.235340	-6.086173	7.621542	0.994258	-0.106175	-0.013375	0.105651	0.993781	-0.035169	0.017025	0.033554	0.999292						
04461														-1.215949	-6.026780	7.640245	0.994262	-0.106235	-0.012557	0.105752	0.993800	-0.034311	0.016124	0.032786	0.999332						
04462														-1.181943	-6.091912	7.567922	0.994258	-0.106353	-0.011809	0.105915	0.993827	-0.033000	0.015246	0.031559	0.999386						
04463														-1.125061	-5.912074	7.739897	0.994258	-0.106403	-0.011372	0.106004	0.993872	-0.031343	0.014637	0.029957	0.999444						
04464														-0.984852	-5.923765	7.721603	0.994257	-0.106393	-0.011592	0.106013	0.993925	-0.029571	0.014668	0.028172	0.999495						
04465														-0.844926	-6.063387	7.617001	0.994239	-0.106375	-0.013195	0.105976	0.993977	-0.027921	0.016085	0.026362	0.999523						
04466														-1.442592	-5.794642	7.791569	0.994206	-0.106480	-0.014694	0.106073	0.994014	-0.026159	0.017392	0.024449	0.999550						
04467														-1.314743	-5.977138	7.723147	0.994167	-0.106688	-0.015809	0.106284	0.994035	-0.024462	0.018325	0.022639	0.999576						
04468														-1.062256	-6.148596	7.537499	0.994120	-0.106917	-0.017153	0.106516	0.994050	-0.022795	0.019488	0.020834	0.999593						
04469														-1.050206	-5.905034	7.704880	0.994047	-0.107290	-0.018943	0.106882	0.994042	-0.021380	0.021124	0.019228	0.999592						
04470														-1.346126	-5.822442	7.752538	0.993966	-0.107800	-0.020289	0.107388	0.994007	-0.020421	0.022369	0.018119	0.999586						
04471														-1.461990	-5.725577	7.837503	0.993893	-0.108356	-0.020896	0.107948	0.993961	-0.019731	0.022908	0.017354	0.999587						
04472														-1.539971	-5.815079	7.798513	0.993827	-0.109053	-0.020391	0.108663	0.993891	-0.019331	0.022374	0.016996	0.999605						
04473														-1.407130	-5.893667	7.647402	0.993783	-0.109715	-0.018902	0.109349	0.993814	-0.019389	0.020912	0.017201	0.999633						
04474														-1.547762	-5.526891	8.037102	0.993757	-0.110334	-0.016508	0.109984	0.993716	-0.020786	0.018697	0.018841	0.999648						
04475														-1.494836	-5.898735	7.927040	0.993756	-0.110769	-0.013368	0.110435	0.993604	-0.023567	0.015893	0.021944	0.999633						
04476														-1.525381	-6.190794	7.862887	0.993743	-0.111324	-0.009024	0.111043	0.993443	-0.027199	0.011993	0.026027	0.999589						
04477														-2.626667	-4.835262	8.704144	0.993653	-0.112487	-0.001083	0.112384	0.993072	-0.034314	0.004935	0.033975	0.999411						
04478														-2.336254	-3.797313	10.621765	0.993080	-0.116686	0.013289	0.117251	0.991533	-0.055804	-0.006665	0.056976	0.998353						
04479														-1.856762	-5.252795	11.499558	0.991291	-0.129044	0.026256	0.131030	0.986439	-0.098837	-0.013145	0.101416	0.994757						
04480														-0.819711	-5.810248	12.008383	0.989072	-0.141462	0.041547	0.146502	0.974656	-0.169067	-0.016577	0.173306	0.984729						
04481														-1.225574	-5.397504	11.824275	0.986555	-0.152902	0.057700	0.162796	0.950464	-0.264795	-0.014354	0.270629	0.962577						
04482														-3.497121	-7.578455	10.058905	0.982520	-0.169086	0.077879	0.186003	0.908800	-0.373477	-0.007627	0.381435	0.924364						
04483														-8.646204	-9.657825	8.829243	0.976681	-0.175108	0.124224	0.213437	0.854478	-0.473616	-0.023213	0.489086	0.871927						
04484														-2.691851	-6.150081	9.398810	0.969516	-0.152340	0.191913	0.233946	0.808387	-0.540166	-0.072851	0.568597	0.819384						
04485														-0.465067	-5.163387	13.402616	0.964127	-0.174804	0.199755	0.257076	0.802346	-0.538659	-0.066113	0.570688	0.818501						
04486														-6.589497	2.290964	8.718529	0.962241	-0.187427	0.197393	0.264757	0.812866	-0.518800	-0.063217	0.551471	0.831795						
04487														-1.876529	0.142425	8.638130	0.964926	-0.196356	0.174249	0.257841	0.833652	-0.488409	-0.049361	0.516206	0.855041						
04488														-1.051498	-1.425648	8.539637	0.969175	-0.201936	0.141143	0.244268	0.862306	-0.443579	-0.032134	0.464382	0.885052						
04489														0.274327	-3.712822	9.055632	0.971891	-0.209505	0.107402	0.234932	0.892709	-0.384548	-0.015314	0.398971	0.916836						
04490														-0.318947	-6.641760	9.171165	0.973458	-0.215920	0.075878	0.228850	0.922012	-0.312283	-0.002532	0.321360	0.946954						
04491														-1.385219	-9.158724	7.839079	0.976162	-0.212569	0.043852	0.216912	0.948379	-0.231357	0.007591	0.235354	0.971880						
04492														-0.705914	-11.179446	6.496033	0.981464	-0.191518	0.007007	0.190386	0.970176	-0.150036	0.021937	0.148589	0.988656						
04493														1.262535	-12.621975	5.740822	0.985665	-0.165553	-0.032507	0.162809	0.983873	-0.074076	0.044247	0.067721	0.996723						
04494														1.708783	-14.047447	4.805705	0.987629	-0.142763	-0.064866	0.142670	0.989752	-0.006086	0.065070	-0.003244	0.997875						
04495														2.252552	-14.574992	3.463330	0.987865	-0.126374	-0.090290	0.131390	0.989969	0.051944	0.082820	-0.063177	0.994560						
04496														1.258019	-14.505839	1.752624	0.986679	-0.120709	-0.109058	0.131537	0.986431	0.098240	0.095720	-0.111276	0.989169						
04497														0.974176	-13.750642	-0.135711	0.983739	-0.129326	-0.124626	0.145220	0.981053	0.128242	0.105680	-0.144255	0.983881						
04498														-3.013911	-12.952940	-2.714668	0.983120	-0.139984	-0.117808	0.154914	0.979480	0.128919	0.097344	-0.144993	0.984633						
04499														4.096503	-15.747752	-0.950622	0.985925	-0.142577	-0.087316	0.150610	0.984153	0.093595	0.072587	-0.105428	0.991774						
04500														-2.960218	-2.584531	11.065278	0.988474	-0.138515	-0.061099	0.142421	0.987668	0.065020	0.051340	-0.072972	0.996012						
04501														1.349488	-10.534544	13.070589	0.989172	-0.143056	-0.032757	0.144128	0.989005	0.033117	0.027659	-0.037480	0.998915						
04502														-2.154347	-4.473470	9.589896	0.989330	-0.143751	-0.023718	0.144058	0.989499	0.011813	0.021771	-0.015104	0.999649						
04503														1.397809	-10.925389	7.109241	0.989566	-0.143108	-0.016702	0.143156	0.989699	0.001698	0.016287	-0.004072	0.999859						
04504														-1.034280	-6.972992	7.216717	0.989608	-0.142859	-0.016346	0.142830	0.989743	-0.002934	0.016597	0.000568	0.999862						
04505														-1.855795	-5.780890	8.268014	0.989628	-0.142829	-0.015370	0.142745	0.989739	-0.006420	0.016129	0.004159	0.999861						
04506														-1.683730	-5.821454	8.080190	0.989693	-0.142561	-0.013574	0.142451	0.989763	-0.008749	0.014682	0.006725	0.999870						
04507														-1.233055	-6.129175	7.562313	0.989748	-0.142369	-0.011380	0.142245	0.989770	-0.011003	0.012830	0.009272	0.999875						
04508														-1.075377	-5.876606	7.849492	0.989808	-0.142106	-0.009320	0.141978	0.989781	-0.013251	0.011108	0.011793	0.999869						
04509														-1.257501	-5.720507	8.158215	0.989865	-0.141780	-0.008115	0.141646	0.989800	-0.015277	0.010198	0.013973	0.999850						
04510														-0.950738	-6.431796	7.630287	0.989912	-0.141493	-0.007410	0.141349	0.989809	-0.017289	0.009780	0.016067	0.999823						
04511														-1.120746	-6.232873	7.635446	0.989927	-0.141397	-0.007233	0.141244	0.989802	-0.018476	0.009772	0.017268	0.999803						
04512														-1.314066	-5.802524	7.893238	0.989914	-0.141497	-0.007000	0.141341	0.989774	-0.019216	0.009647	0.018032	0.999791						
04513														-1.226791	-5.885683	7.853450	0.989892	-0.141661	-0.006711	0.141504	0.989737	-0.019919	0.009464	0.018768	0.999779						
04514														-1.287640	-5.943575	7.701480	0.989855	-0.141947	-0.006150	0.141800	0.989693	-0.020031	0.008930	0.018956	0.999780						
04515														-1.055297	-6.058430	7.666521	0.989797	-0.142380	-0.005543	0.142246	0.989633	-0.019826	0.008309	0.018835	0.999788						
04516														-0.941199	-5.888159	7.767163	0.989741	-0.142773	-0.005395	0.142645	0.989586	-0.019291	0.008093	0.018323	0.999799						
04517														-1.185166	-5.774198	7.883177	0.989691	-0.143106	-0.005713	0.142979	0.989552	-0.018558	0.008309	0.017550	0.999811						
04518														-1.000222	-6.119383	7.670779	0.989654	-0.143338	-0.006294	0.143205	0.989529	-0.018017	0.008811	0.016929	0.999818						
04519														-1.108435	-5.939449	7.711384	0.989609	-0.143614	-0.006968	0.143478	0.989504	-0.017187	0.009363	0.016009	0.999828						
04520														-1.349061	-5.791706	7.818422	0.989571	-0.143856	-0.007409	0.143725	0.989489	-0.015939	0.009624	0.014708	0.999846						
04521														-1.218621	-5.881928	7.768374	0.989528	-0.144155	-0.007316	0.144040	0.989467	-0.014380	0.009312	0.013176	0.999870						
04522														-1.074830	-5.924552	7.732883	0.989486	-0.144459	-0.007023	0.144361	0.989442	-0.012856	0.008806	0.011707	0.999893						
04523														-0.935373	-5.988529	7.708472	0.989426	-0.144881	-0.006823	0.144797	0.989395	-0.011487	0.008414	0.010377	0.999911						
04524														-1.169763	-5.741769	7.789379	0.989341	-0.145475	-0.006450	0.145404	0.989318	-0.010350	0.007887	0.009302	0.999926						
04525														-1.239695	-5.641418	7.921623	0.989279	-0.145940	-0.005283	0.145885	0.989254	-0.009725	0.006646	0.008850	0.999939						
04526														-1.426933	-5.743465	8.033768	0.989264	-0.146094	-0.003606	0.146050	0.989223	-0.010384	0.005084	0.009746	0.999940						
04527														-2.155169	-5.218795	8.495536	0.989235	-0.146334	-0.000312	0.146317	0.989146	-0.013471	0.002280	0.013281	0.999909						
04528														-2.943145	-4.599837	9.124334	0.989029	-0.147509	0.007942	0.147644	0.988824	-0.020694	-0.004800	0.021639	0.999754						
04529														-2.453874	-4.025102	10.924520	0.988524	-0.148826	0.025912	0.149823	0.987818	-0.042061	-0.019336	0.045460	0.998779						
04530														-2.449276	-4.859975	12.803130	0.986425	-0.157342	0.047011	0.161112	0.982669	-0.091676	-0.031772	0.098006	0.994679						
04531														-2.238048	-6.040451	12.272149	0.982216	-0.172225	0.074768	0.182847	0.967880	-0.172557	-0.042648	0.183159	0.982158						
04532														-3.027045	-7.494766	11.818329	0.975281	-0.193711	0.106314	0.215848	0.938137	-0.270756	-0.047288	0.287011	0.956759						
04533														-7.764136	-7.362418	10.677211	0.966070	-0.206070	0.155705	0.250413	0.894961	-0.369239	-0.063261	0.395702	0.916198						
04534														-3.431837	-9.560216	12.513529	0.957313	-0.191970	0.216100	0.270755	0.857309	-0.437850	-0.101211	0.477669	0.872690						
04535														-3.613893	-0.479682	10.491717	0.955542	-0.208428	0.208559	0.282959	0.847091	-0.449856	-0.082906	0.488870	0.868408						
04536														-2.844162	0.033347	8.548895	0.954438	-0.222500	0.198850	0.290808	0.842963	-0.452597	-0.066920	0.489803	0.869261						
04537														-1.383683	-0.173676	8.488208	0.953031	-0.243778	0.179736	0.299296	0.848960	-0.435533	-0.046415	0.468871	0.882046						
04538														0.237992	-0.988070	8.187759	0.951938	-0.263766	0.155696	0.305063	0.861947	-0.404950	-0.027390	0.432985	0.900985						
04539														0.637735	-2.187999	8.202352	0.951400	-0.280775	0.126503	0.307809	0.879768	-0.362301	-0.009568	0.383632	0.923437						
04540														0.603339	-3.708877	8.410476	0.950279	-0.296144	0.096274	0.311361	0.898723	-0.308789	0.004922	0.323411	0.946246						
04541														-1.216563	-6.101778	8.493093	0.950494	-0.303920	0.064763	0.310394	0.918692	-0.244255	0.014737	0.252265	0.967546						
04542														-1.441428	-7.769926	7.396526	0.954863	-0.295907	0.026006	0.295812	0.939265	-0.173999	0.027061	0.173838	0.984402						
04543														-0.594981	-9.696886	6.788405	0.962414	-0.271108	-0.016121	0.267953	0.957540	-0.106385	0.044278	0.098067	0.994194						
04544														0.258135	-11.838748	6.248064	0.968680	-0.241836	-0.056348	0.239588	0.969885	-0.043821	0.065249	0.028948	0.997449						
04545														0.348709	-14.146541	5.042090	0.973384	-0.213050	-0.084456	0.214744	0.976604	0.011399	0.080051	-0.029232	0.996362						
04546														0.631382	-15.048247	3.751999	0.977009	-0.186028	-0.104146	0.192899	0.979368	0.060238	0.090791	-0.078943	0.992736						
04547														1.096337	-14.440897	1.947430	0.979695	-0.161158	-0.119276	0.173099	0.980057	0.097597	0.101168	-0.116262	0.988053						
04548														1.806154	-13.920439	0.962166	0.980812	-0.142861	-0.132657	0.158788	0.980184	0.118431	0.113109	-0.137223	0.984061						
04549														-0.257879	-13.854516	-0.956209	0.982912	-0.133895	-0.126317	0.148524	0.982255	0.114527	0.108741	-0.131331	0.985357						
04550														3.271139	-16.345361	0.608544	0.985827	-0.135091	-0.099479	0.143570	0.986099	0.083650	0.086796	-0.096746	0.991517						
04551														-3.014821	-3.923635	9.771171	0.988328	-0.131741	-0.076498	0.136514	0.988763	0.060919	0.067613	-0.070651	0.995207						
04552														-1.620511	-5.419508	11.115703	0.990157	-0.135403	-0.035420	0.136567	0.990088	0.032800	0.030627	-0.037314	0.998834						
04553														2.348532	-6.535880	10.681134	0.990377	-0.136898	-0.020326	0.137187	0.990452	0.013564	0.018275	-0.016222	0.999701						
04554														-0.965000	-9.816180	7.518717	0.990458	-0.137305	-0.011856	0.137288	0.990529	-0.002277	0.012056	0.000628	0.999927						
04555														-0.040463	-6.551643	7.400102	0.990468	-0.137281	-0.011238	0.137204	0.990516	-0.007322	0.012136	0.005710	0.999910						
04556														-1.639521	-5.654255	8.137491	0.990443	-0.137201	-0.014105	0.137051	0.990502	-0.011087	0.015492	0.009047	0.999839						
04557														-1.866523	-6.012685	8.087535	0.990478	-0.136777	-0.015648	0.136551	0.990524	-0.014696	0.017510	0.012420	0.999770						
04558														-1.021424	-6.908951	7.337045	0.990536	-0.136322	-0.015929	0.136039	0.990545	-0.017708	0.018193	0.015373	0.999716						
04559														-1.322319	-6.320590	7.694608	0.990571	-0.136006	-0.016457	0.135669	0.990550	-0.020127	0.019039	0.017704	0.999662						
04560														-1.620798	-5.580397	8.181271	0.990603	-0.135789	-0.016335	0.135405	0.990531	-0.022684	0.019261	0.020259	0.999609						
04561														-1.460873	-5.904012	7.921877	0.990625	-0.135719	-0.015557	0.135295	0.990472	-0.025696	0.018897	0.023351	0.999549						
04562														-1.260656	-6.329721	7.555428	0.990639	-0.135755	-0.014319	0.135316	0.990404	-0.028092	0.017996	0.025891	0.999503						
04563														-1.091768	-6.381637	7.505454	0.990644	-0.135831	-0.013234	0.135387	0.990334	-0.030134	0.017199	0.028061	0.999458						
04564														-1.306374	-5.932639	7.721047	0.990652	-0.135857	-0.012312	0.135418	0.990293	-0.031343	0.016451	0.029383	0.999433						
04565														-1.313407	-5.835613	7.765531	0.990645	-0.136008	-0.011174	0.135597	0.990258	-0.031656	0.015370	0.029845	0.999436						
04566														-0.919332	-6.220973	7.514606	0.990590	-0.136478	-0.010254	0.136095	0.990190	-0.031661	0.014475	0.029967	0.999446						
04567														-1.072814	-5.936804	7.702282	0.990498	-0.137174	-0.009873	0.136801	0.990091	-0.031700	0.014124	0.030048	0.999449						
04568														-1.195155	-5.871353	7.712852	0.990411	-0.137825	-0.009542	0.137464	0.990002	-0.031610	0.013804	0.029995	0.999455						
04569														-1.177604	-6.006887	7.658382	0.990331	-0.138412	-0.009340	0.138056	0.989921	-0.031585	0.013618	0.029990	0.999457						
04570														-1.217210	-5.956628	7.707050	0.990243	-0.139073	-0.008785	0.138735	0.989827	-0.031531	0.013081	0.030004	0.999464						
04571														-1.220534	-6.064314	7.667633	0.990177	-0.139591	-0.008042	0.139276	0.989753	-0.031481	0.012354	0.030052	0.999472						
04572														-1.176977	-5.985353	7.671188	0.990099	-0.140204	-0.006775	0.139924	0.989655	-0.031701	0.011150	0.030439	0.999474						
04573														-1.091139	-5.832125	7.837610	0.990014	-0.140860	-0.005548	0.140610	0.989534	-0.032429	0.010058	0.031325	0.999459						
04574														-1.077593	-5.924942	7.793455	0.989925	-0.141531	-0.004124	0.141306	0.989359	-0.034648	0.008983	0.033716	0.999391						
04575														-1.341556	-5.716619	7.955162	0.989806	-0.142414	-0.001722	0.142240	0.989069	-0.038868	0.007238	0.038227	0.999243						
04576														-1.408678	-5.698374	8.139517	0.989680	-0.143279	0.002189	0.143228	0.988629	-0.045809	0.004400	0.045650	0.998948						
04577														-1.342415	-5.673261	8.419716	0.989468	-0.144539	0.007828	0.144749	0.987774	-0.057889	0.000635	0.058412	0.998292						
04578														-1.400628	-5.619434	9.198159	0.989063	-0.146839	0.013914	0.147479	0.985998	-0.077830	-0.002291	0.079031	0.996870						
04579														-1.893966	-5.830390	10.288263	0.988582	-0.148963	0.022704	0.150577	0.982268	-0.111700	-0.005662	0.113843	0.993483						
04580														-1.753066	-4.963749	11.485081	0.987636	-0.153181	0.033332	0.156615	0.973426	-0.167074	-0.006854	0.170228	0.985381						
04581														-3.042767	-5.259688	12.084301	0.986166	-0.158775	0.047624	0.165654	0.954417	-0.248287	-0.006032	0.252741	0.967515						
04582														-1.807871	-7.347197	10.929179	0.983054	-0.170224	0.068040	0.183303	0.917692	-0.352480	-0.002439	0.358979	0.933343						
04583														-3.450683	-9.599526	9.139024	0.978103	-0.186452	0.092461	0.208021	0.862241	-0.461808	0.006381	0.470930	0.882147						
04584														-5.428160	-11.097438	7.719649	0.973253	-0.187052	0.133378	0.229667	0.806322	-0.545067	-0.005589	0.561121	0.827715						
04585														-0.386881	-9.983555	11.395010	0.969198	-0.174881	0.173415	0.244293	0.771996	-0.586808	-0.031254	0.611097	0.790939						
04586														-5.711684	-0.876214	9.052241	0.967563	-0.178885	0.178387	0.250279	0.774852	-0.580487	-0.034383	0.606304	0.794489						
04587														-2.053612	-1.411439	7.318263	0.968770	-0.178633	0.171975	0.245676	0.785420	-0.568118	-0.033588	0.592626	0.804777						
04588														-1.540770	-1.065580	6.995894	0.971107	-0.183604	0.152447	0.237460	0.806969	-0.540753	-0.023735	0.561330	0.827252						
04589														-0.286495	-1.979892	7.020583	0.972754	-0.190313	0.132407	0.231328	0.834719	-0.499731	-0.015418	0.516744	0.856001						
04590														0.012219	-3.020679	7.529522	0.973305	-0.199860	0.112845	0.229348	0.865777	-0.444781	-0.008805	0.458788	0.888502						
04591														0.389320	-3.710404	7.756653	0.973290	-0.211273	0.089837	0.229580	0.896268	-0.379469	-0.000346	0.389958	0.920832						
04592														0.695992	-5.529909	8.235027	0.972461	-0.224353	0.063131	0.232813	0.922471	-0.307969	0.010857	0.314185	0.949300						
04593														-0.270427	-7.807528	8.626677	0.970910	-0.236549	0.037139	0.238658	0.943420	-0.230222	0.019421	0.232388	0.972429						
04594														-1.170325	-10.239388	8.055902	0.970324	-0.241507	0.012062	0.240568	0.959101	-0.149171	0.024457	0.147645	0.988738						
04595														-1.750734	-12.822870	6.131318	0.972555	-0.232196	-0.014868	0.230623	0.970484	-0.070529	0.030806	0.065164	0.997399						
04596														-0.866458	-14.547530	3.563711	0.976434	-0.211663	-0.042132	0.211674	0.977331	-0.004253	0.042077	-0.004766	0.999103						
04597														1.041450	-16.747865	1.892181	0.979197	-0.190104	-0.070953	0.193516	0.980077	0.044729	0.061037	-0.057529	0.996476						
04598														1.638054	-17.831462	-0.685097	0.979646	-0.174388	-0.099407	0.182492	0.980010	0.079229	0.083603	-0.095758	0.991888						
04599														2.333493	-17.442168	-2.542923	0.977421	-0.173857	-0.120095	0.185337	0.978350	0.092093	0.101484	-0.112271	0.988482						
04600														0.213177	-15.689774	-3.309460	0.980457	-0.172766	-0.094105	0.180050	0.980770	0.075314	0.079283	-0.090786	0.992709						
04601														-2.448563	-4.596591	8.447717	0.985250	-0.159173	-0.062818	0.162268	0.985594	0.047673	0.054325	-0.057163	0.996886						
04602														7.887110	-9.188149	13.396345	0.986491	-0.161688	-0.026326	0.162286	0.986489	0.022420	0.022345	-0.026389	0.999402						
04603														-3.237978	-7.003846	10.797452	0.986326	-0.163781	-0.018330	0.163947	0.986437	0.007945	0.016780	-0.010842	0.999800						
04604														1.125808	-7.867904	7.264698	0.986418	-0.163378	-0.016945	0.163383	0.986562	-0.001049	0.016888	-0.001734	0.999856						
04605														-0.837407	-7.302526	6.976981	0.986402	-0.163273	-0.018788	0.163121	0.986562	-0.009361	0.020064	0.006169	0.999780						
04606														-2.607507	-5.795932	7.909748	0.986410	-0.163101	-0.019818	0.162840	0.986551	-0.014173	0.021863	0.010754	0.999703						
04607														-1.419397	-6.094806	7.869357	0.986475	-0.162861	-0.018548	0.162552	0.986552	-0.017112	0.021085	0.013865	0.999682						
04608														-1.041949	-6.594112	7.550916	0.986532	-0.162585	-0.017912	0.162233	0.986557	-0.019626	0.020863	0.016456	0.999647						
04609														-1.077232	-6.083602	7.895582	0.986544	-0.162569	-0.017412	0.162164	0.986506	-0.022555	0.020844	0.019428	0.999594						
04610														-1.627682	-5.686321	8.090330	0.986550	-0.162558	-0.017157	0.162102	0.986451	-0.025254	0.021030	0.022133	0.999534						
04611														-1.376693	-6.246507	7.599919	0.986559	-0.162590	-0.016275	0.162111	0.986392	-0.027405	0.020510	0.024399	0.999492						
04612														-1.278659	-6.260004	7.497546	0.986554	-0.162745	-0.015046	0.162269	0.986328	-0.028732	0.019517	0.025904	0.999474						
04613														-1.274605	-5.962321	7.717647	0.986523	-0.163044	-0.013765	0.162593	0.986259	-0.029256	0.018346	0.026624	0.999477						
04614														-1.051247	-5.950511	7.777921	0.986479	-0.163391	-0.012732	0.162964	0.986193	-0.029414	0.017362	0.026941	0.999486						
04615														-1.158941	-5.938638	7.691243	0.986427	-0.163736	-0.012348	0.163320	0.986136	-0.029378	0.016987	0.026963	0.999492						
04616														-1.158082	-6.039761	7.595667	0.986394	-0.163936	-0.012289	0.163526	0.986109	-0.029126	0.016893	0.026720	0.999500						
04617														-1.270104	-5.990739	7.644481	0.986372	-0.164080	-0.012197	0.163686	0.986106	-0.028317	0.016674	0.025934	0.999525						
04618														-1.281659	-5.907279	7.743114	0.986352	-0.164224	-0.011812	0.163864	0.986118	-0.026840	0.016056	0.024538	0.999570						
04619														-0.839661	-6.147696	7.603696	0.986320	-0.164402	-0.012071	0.164055	0.986120	-0.025574	0.016108	0.023244	0.999600						
04620														-0.920538	-6.024493	7.649559	0.986265	-0.164633	-0.013278	0.164271	0.986101	-0.024902	0.017194	0.022379	0.999602						
04621														-1.009436	-5.947021	7.635690	0.986179	-0.165019	-0.014841	0.164633	0.986055	-0.024318	0.018647	0.021538	0.999594						
04622														-1.419448	-6.051770	7.476167	0.986080	-0.165543	-0.015537	0.165157	0.985987	-0.023502	0.019210	0.020608	0.999603						
04623														-1.697697	-5.366177	8.172819	0.986004	-0.166091	-0.014517	0.165743	0.985910	-0.022607	0.018067	0.019884	0.999639						
04624														-1.497566	-5.759591	8.006013	0.985975	-0.166400	-0.012809	0.166082	0.985848	-0.022802	0.016422	0.020355	0.999658						
04625														-1.403634	-6.348955	7.613930	0.985960	-0.166675	-0.010158	0.166399	0.985773	-0.023722	0.013967	0.021698	0.999667						
04626														-1.893464	-5.758447	8.098154	0.985931	-0.167062	-0.005510	0.166859	0.985617	-0.026784	0.009905	0.025488	0.999626						
04627														-3.150351	-4.541656	9.466467	0.985912	-0.167182	0.005301	0.167264	0.985267	-0.035660	0.000739	0.036045	0.999350						
04628														-1.765786	-4.478563	10.506837	0.985208	-0.170153	0.020316	0.171083	0.983425	-0.060049	-0.009761	0.062637	0.997989						
04629														-2.150350	-5.134262	12.082973	0.983213	-0.178624	0.037216	0.181642	0.977517	-0.107082	-0.017252	0.112044	0.993553						
04630														-2.486649	-5.774118	11.817974	0.979578	-0.191414	0.061542	0.199563	0.962933	-0.181479	-0.024524	0.190054	0.981467						
04631														-2.388635	-7.320457	11.386640	0.973676	-0.209455	0.089906	0.226379	0.934641	-0.274224	-0.026592	0.287359	0.957454						
04632														-7.116612	-8.218632	10.399308	0.966070	-0.219167	0.136654	0.254961	0.893784	-0.368979	-0.041271	0.391301	0.919337						
04633														-4.789513	-6.927935	10.513537	0.957790	-0.203168	0.203376	0.275673	0.849727	-0.449408	-0.081509	0.486504	0.869868						
04634														0.067944	-6.921162	12.709145	0.956777	-0.202578	0.208663	0.280342	0.833328	-0.476417	-0.077373	0.514322	0.854100						
04635														-3.907829	1.855061	8.587816	0.957783	-0.206018	0.200522	0.279617	0.829686	-0.483152	-0.066832	0.518824	0.852265						
04636														-1.205727	0.155256	8.847564	0.957764	-0.217891	0.187646	0.282371	0.835998	-0.470504	-0.054353	0.503617	0.862215						
04637														-0.239266	0.032855	8.033696	0.957583	-0.231718	0.171294	0.284780	0.851746	-0.439806	-0.043988	0.469932	0.881606						
04638														-0.097588	-1.858961	8.389596	0.957814	-0.246507	0.147737	0.285622	0.873414	-0.394420	-0.031808	0.419978	0.906977						
04639														-0.054361	-3.591781	8.792411	0.958162	-0.260096	0.119481	0.285525	0.897759	-0.335415	-0.020025	0.355497	0.934463						
04640														-0.770616	-5.837600	8.659104	0.959249	-0.268392	0.088360	0.282389	0.921544	-0.266483	-0.009906	0.280576	0.959781						
04641														-1.104313	-8.215623	8.039430	0.963014	-0.264102	0.053421	0.269450	0.943486	-0.192951	0.000557	0.200209	0.979753						
04642														-0.161157	-10.930178	6.960871	0.968493	-0.248379	0.018132	0.248710	0.960890	-0.121794	0.012828	0.122467	0.992390						
04643														1.070207	-13.631677	5.658079	0.973288	-0.229244	-0.012580	0.228206	0.971977	-0.056409	0.025158	0.052031	0.998329						
04644														2.274830	-15.953727	3.725831	0.975497	-0.216255	-0.040498	0.216541	0.976270	0.002748	0.038943	-0.011450	0.999176						
04645														3.176942	-15.723217	0.676013	0.974319	-0.215897	-0.063963	0.219111	0.974502	0.048341	0.051895	-0.061115	0.996781						
04646														3.700428	-15.396010	-0.993934	0.968846	-0.232317	-0.085826	0.238567	0.968489	0.071521	0.066506	-0.089768	0.993740						
04647														3.272410	-15.295367	-1.092611	0.959465	-0.260441	-0.107693	0.268852	0.960445	0.072560	0.084535	-0.098573	0.991533						
04648														-3.471027	-14.397308	-0.523209	0.954772	-0.279295	-0.102001	0.285632	0.956836	0.053665	0.082610	-0.080372	0.993336						
04649														-1.577869	-10.195062	8.128118	0.958933	-0.277238	-0.059887	0.279173	0.959871	0.026635	0.050099	-0.042260	0.997850						
04650														4.696045	-4.992377	11.013470	0.960235	-0.278404	-0.020981	0.278689	0.960305	0.012082	0.016784	-0.017448	0.999707						
04651														-0.345394	-6.759157	11.601142	0.960137	-0.279129	-0.014973	0.279175	0.960240	0.001029	0.014090	-0.005169	0.999887						
04652														0.196461	-7.099606	7.766347	0.960474	-0.277925	-0.015720	0.277867	0.960602	-0.005786	0.016708	0.001189	0.999860						
04653														-1.241664	-7.510335	6.826338	0.960765	-0.276852	-0.016850	0.276679	0.960889	-0.011901	0.019485	0.006772	0.999787						
04654														-1.701105	-6.676079	7.259575	0.961110	-0.275616	-0.017413	0.275399	0.961230	-0.013873	0.020561	0.008538	0.999752						
04655														-2.486791	-5.703650	7.967998	0.961531	-0.274284	-0.015045	0.274103	0.961612	-0.013058	0.018049	0.008432	0.999802						
04656														-0.808852	-6.045980	7.928770	0.961897	-0.273153	-0.011884	0.273015	0.961935	-0.012022	0.014716	0.008320	0.999857						
04657														0.133464	-6.233794	7.954691	0.962066	-0.272579	-0.011357	0.272442	0.962093	-0.012325	0.014286	0.008763	0.999860						
04658														-0.779150	-5.591404	8.348952	0.961992	-0.272733	-0.013743	0.272531	0.962031	-0.014928	0.017292	0.010615	0.999794						
04659														-1.754459	-5.823102	7.858643	0.961843	-0.273135	-0.015967	0.272845	0.961886	-0.018195	0.020328	0.013144	0.999707						
04660														-1.897857	-6.210255	7.464350	0.961632	-0.273890	-0.015743	0.273563	0.961643	-0.020140	0.020655	0.015061	0.999673						
04661														-1.508811	-6.285082	7.484364	0.961414	-0.274770	-0.013600	0.274463	0.961372	-0.020841	0.018801	0.016304	0.999690						
04662														-0.983520	-6.001113	7.794595	0.961208	-0.275589	-0.011385	0.275317	0.961125	-0.020945	0.016714	0.016998	0.999716						
04663														-1.126507	-5.683574	7.949668	0.961037	-0.276241	-0.009945	0.275991	0.960928	-0.021133	0.015394	0.017565	0.999727						
04664														-0.988534	-5.947309	7.789419	0.960894	-0.276751	-0.009543	0.276500	0.960769	-0.021693	0.015172	0.018206	0.999719						
04665														-1.123138	-6.000387	7.621855	0.960777	-0.277157	-0.009541	0.276900	0.960646	-0.022033	0.015273	0.018527	0.999712						
04666														-1.356031	-5.779771	7.748590	0.960659	-0.277571	-0.009428	0.277320	0.960530	-0.021802	0.015107	0.018330	0.999718						
04667														-1.044528	-6.028764	7.671663	0.960566	-0.277898	-0.009210	0.277661	0.960446	-0.021172	0.014729	0.017780	0.999733						
04668														-1.066101	-5.940591	7.703205	0.960479	-0.278187	-0.009625	0.277953	0.960377	-0.020438	0.014929	0.016955	0.999745						
04669														-0.906735	-6.022348	7.694076	0.960376	-0.278506	-0.010625	0.278267	0.960302	-0.019688	0.015687	0.015952	0.999750						
04670														-0.693101	-6.412793	7.250309	0.960231	-0.278933	-0.012374	0.278689	0.960206	-0.018370	0.017006	0.014190	0.999755						
04671														-1.558347	-5.830439	7.718461	0.960067	-0.279462	-0.013135	0.279251	0.960088	-0.015820	0.017031	0.011520	0.999789						
04672														-1.668143	-5.305411	8.260847	0.959956	-0.279883	-0.012269	0.279714	0.959983	-0.013841	0.015652	0.009854	0.999829						
04673														-1.444880	-5.650133	8.041421	0.959930	-0.280030	-0.010857	0.279894	0.959949	-0.012558	0.013939	0.009016	0.999862						
04674														-1.384535	-6.046441	7.933176	0.959907	-0.280177	-0.008964	0.280050	0.959895	-0.013162	0.012292	0.010124	0.999873						
04675														-1.943842	-5.758997	8.289380	0.959848	-0.280466	-0.005514	0.280337	0.959746	-0.017262	0.010134	0.015023	0.999836						
04676														-3.359961	-4.199284	9.651172	0.959998	-0.279989	0.003263	0.279975	0.959636	-0.026702	0.004345	0.026547	0.999638						
04677														-2.929966	-3.738640	11.763324	0.959038	-0.282543	0.020364	0.283257	0.957328	-0.057341	-0.003293	0.060761	0.998147						
04678														-2.806110	-4.525453	13.734303	0.954799	-0.293985	0.043939	0.297183	0.947245	-0.120036	-0.006332	0.127668	0.991797						
04679														-1.567797	-5.960742	12.447397	0.948309	-0.308673	0.073689	0.317339	0.924052	-0.213130	-0.002305	0.225498	0.974241						
04680														-3.453284	-7.173115	11.634639	0.940112	-0.323683	0.106862	0.340735	0.883655	-0.321021	0.009480	0.338207	0.941024						
04681														-8.436138	-8.131862	11.143984	0.936138	-0.308995	0.167830	0.351524	0.834177	-0.424947	-0.008693	0.456805	0.889524						
04682														-0.212620	-8.821551	14.250991	0.939565	-0.268319	0.212655	0.340001	0.804185	-0.487530	-0.040200	0.530369	0.846813						
04683														-5.025169	2.774590	10.077466	0.945038	-0.268458	0.186636	0.326499	0.805140	-0.495125	-0.017347	0.528848	0.848539						
04684														-1.948531	1.043630	8.874100	0.948660	-0.265543	0.171843	0.316148	0.812715	-0.489433	-0.009694	0.518634	0.854942						
04685														-1.439243	0.575627	8.832354	0.950600	-0.269873	0.153391	0.310396	0.832424	-0.459048	-0.003802	0.483983	0.875069						
04686														-1.295263	-1.276042	8.410474	0.952704	-0.274567	0.130262	0.303896	0.858768	-0.412511	0.001397	0.432587	0.901591						
04687														-1.488776	-3.190419	8.330896	0.956419	-0.274501	0.099562	0.291872	0.888657	-0.353694	0.008613	0.367339	0.930047						
04688														-1.480876	-4.903361	8.461114	0.960649	-0.270217	0.064310	0.277162	0.917267	-0.286012	0.018296	0.292582	0.956065						
04689														-1.747947	-7.143267	8.814898	0.964994	-0.260777	0.027959	0.260713	0.942189	-0.210496	0.028550	0.210417	0.977195						
04690														-1.813418	-8.108447	8.752412	0.969384	-0.245416	-0.008097	0.242260	0.961257	-0.131508	0.040057	0.125520	0.991282						
04691														-2.345372	-10.274774	7.450451	0.974379	-0.221400	-0.039594	0.219016	0.974061	-0.056891	0.051162	0.046762	0.997595						
04692														-0.549272	-13.560748	5.120895	0.979028	-0.191448	-0.069656	0.192305	0.981318	0.005753	0.067253	-0.019028	0.997554						
04693														1.968941	-15.496817	2.619196	0.979377	-0.170358	-0.108627	0.176783	0.982850	0.052483	0.097823	-0.070604	0.992696						
04694														-0.486310	-19.758237	1.590317	0.973279	-0.164037	-0.160685	0.179713	0.979744	0.088350	0.142938	-0.114866	0.983044						
04695														0.684283	-23.069503	-8.461874	0.976334	-0.167689	-0.136572	0.181099	0.979109	0.092462	0.118214	-0.115007	0.986306						
04696														2.559297	-22.495109	-8.107345	0.980448	-0.171359	-0.096732	0.178436	0.981463	0.069933	0.082955	-0.085826	0.992851						
04697														-0.449546	-10.243671	11.570032	0.985215	-0.165378	-0.044742	0.167438	0.984759	0.047049	0.036279	-0.053845	0.997890						
04698														5.602937	-4.646635	12.874181	0.985644	-0.167152	-0.023774	0.167759	0.985476	0.026349	0.019025	-0.029959	0.999370						
04699														-2.551136	-6.460744	9.449072	0.985642	-0.168099	-0.015912	0.168279	0.985681	0.010728	0.013880	-0.013252	0.999816						
04700														1.466173	-8.190591	6.539024	0.985832	-0.167110	-0.014505	0.167202	0.985908	0.005371	0.013403	-0.007720	0.999880						
04701														-1.343569	-6.744882	7.314570	0.985869	-0.166635	-0.017167	0.166668	0.986013	0.000481	0.016847	-0.003335	0.999853						
04702														-2.182794	-4.871642	8.691573	0.985851	-0.166500	-0.019387	0.166457	0.986041	-0.003848	0.019757	0.000566	0.999805						
04703														-2.053644	-5.768996	7.918008	0.985906	-0.166191	-0.019222	0.166074	0.986084	-0.007543	0.020208	0.004244	0.999787						
04704														-0.991777	-7.260130	7.066540	0.985974	-0.165901	-0.018212	0.165735	0.986117	-0.010272	0.019663	0.007110	0.999781						
04705														-1.102346	-6.326699	7.646501	0.986010	-0.165872	-0.016475	0.165691	0.986107	-0.011850	0.018212	0.008954	0.999794						
04706														-1.600654	-5.131381	8.489690	0.986011	-0.166032	-0.014707	0.165851	0.986068	-0.012786	0.016625	0.010168	0.999810						
04707														-1.443516	-5.894149	7.895380	0.986020	-0.166150	-0.012590	0.165979	0.986036	-0.013577	0.014670	0.011298	0.999829						
04708														-1.155249	-6.475349	7.417035	0.986000	-0.166463	-0.009679	0.166328	0.985980	-0.013339	0.011764	0.011542	0.999864						
04709														-0.951723	-6.229054	7.664048	0.985945	-0.166918	-0.007148	0.166825	0.985913	-0.012037	0.009057	0.010676	0.999902						
04710														-1.115223	-5.908295	7.830714	0.985858	-0.167500	-0.005335	0.167439	0.985828	-0.010369	0.006996	0.009329	0.999932						
04711														-0.775400	-5.683859	8.074945	0.985790	-0.167908	-0.004938	0.167861	0.985771	-0.008801	0.006345	0.007847	0.999949						
04712														-0.860618	-5.933702	7.810129	0.985746	-0.168125	-0.006213	0.168075	0.985743	-0.007852	0.007445	0.006696	0.999950						
04713														-0.947520	-5.711545	7.849648	0.985698	-0.168299	-0.008629	0.168240	0.985720	-0.007197	0.009717	0.005643	0.999937						
04714														-1.292166	-5.555929	7.896338	0.985651	-0.168404	-0.011477	0.168338	0.985708	-0.006476	0.012403	0.004451	0.999913						
04715														-1.212758	-5.847173	7.723969	0.985597	-0.168518	-0.014177	0.168455	0.985694	-0.005572	0.014913	0.003103	0.999884						
04716														-1.416573	-5.706051	7.792197	0.985527	-0.168731	-0.016295	0.168683	0.985661	-0.004307	0.016788	0.001496	0.999858						
04717														-1.121647	-5.839505	7.789994	0.985452	-0.168992	-0.018067	0.168964	0.985617	-0.003051	0.018323	-0.000046	0.999832						
04718														-0.896331	-6.202190	7.480397	0.985338	-0.169416	-0.020165	0.169408	0.985544	-0.002107	0.020230	-0.001340	0.999794						
04719														-1.383987	-5.796075	7.761596	0.985212	-0.169954	-0.021738	0.169969	0.985449	-0.001152	0.021617	-0.002559	0.999763						
04720														-1.842833	-5.028060	8.235425	0.985165	-0.170251	-0.021550	0.170283	0.985395	-0.000316	0.021290	-0.003358	0.999768						
04721														-1.658047	-5.316888	8.364037	0.985193	-0.170286	-0.019943	0.170296	0.985392	-0.001247	0.019864	-0.002168	0.999800						
04722														-1.370582	-6.175369	7.605108	0.985245	-0.170278	-0.017245	0.170254	0.985396	-0.002898	0.017487	-0.000081	0.999847						
04723														-1.083991	-6.375290	7.502966	0.985303	-0.170275	-0.013594	0.170221	0.985393	-0.005020	0.014250	0.002632	0.999895						
04724														-1.832450	-5.192624	8.400125	0.985366	-0.170147	-0.010234	0.170058	0.985392	-0.009055	0.011625	0.007182	0.999907						
04725														-2.694078	-4.548268	9.152271	0.985312	-0.170709	-0.004417	0.170602	0.985171	-0.018243	0.007466	0.017221	0.999824						
04726														-2.642724	-3.668200	10.692801	0.985009	-0.172282	0.008715	0.172491	0.984259	-0.038488	-0.001947	0.039414	0.999221						
04727														-1.241120	-5.532580	11.578286	0.982828	-0.183200	0.022081	0.184423	0.979213	-0.084440	-0.006152	0.087062	0.996184						
04728														-1.638042	-5.589553	12.014893	0.979903	-0.195054	0.041770	0.199250	0.967068	-0.158362	-0.009505	0.163502	0.986497						
04729														-1.664824	-5.120191	11.593262	0.975952	-0.208729	0.062850	0.217900	0.942223	-0.254432	-0.006112	0.262008	0.965046						
04730														-3.872086	-7.377735	9.934294	0.969854	-0.227720	0.086751	0.243657	0.900852	-0.359301	0.003670	0.369607	0.929181						
04731														-6.657311	-9.882901	8.028122	0.963629	-0.229575	0.136802	0.267006	0.848653	-0.456614	-0.011271	0.476534	0.879084						
04732														-1.813319	-7.216673	10.636006	0.957849	-0.211362	0.194555	0.283447	0.805521	-0.520378	-0.046730	0.553590	0.831477						
04733														-2.798854	-4.688726	11.312594	0.954365	-0.225405	0.195906	0.295887	0.802569	-0.518009	-0.040466	0.552336	0.832639						
04734														-3.730221	1.606842	7.055793	0.953538	-0.234461	0.189190	0.299195	0.810573	-0.503442	-0.035315	0.536656	0.843062						
04735														-2.320423	-0.524083	7.897868	0.955610	-0.244775	0.163995	0.293996	0.828776	-0.476127	-0.019371	0.503206	0.863949						
04736														-0.463555	-1.399526	7.996743	0.959164	-0.251206	0.130001	0.282845	0.854865	-0.434976	-0.001865	0.453984	0.891008						
04737														0.533303	-3.032893	8.764973	0.961558	-0.258010	0.094008	0.274188	0.883301	-0.380264	0.015075	0.391422	0.920088						
04738														0.576415	-4.964576	9.284987	0.962149	-0.265906	0.059697	0.270978	0.910150	-0.313365	0.028993	0.317680	0.947755						
04739														-0.628800	-7.852404	8.889014	0.962294	-0.270788	0.025769	0.269071	0.933718	-0.236160	0.039888	0.234189	0.971373						
04740														-1.374565	-10.044295	7.199200	0.965286	-0.260994	-0.010269	0.256301	0.954041	-0.155294	0.050328	0.147271	0.987815						
04741														0.444590	-12.896175	5.363999	0.969985	-0.238380	-0.047990	0.234149	0.968895	-0.080108	0.065593	0.066467	0.995630						
04742														2.578404	-15.158439	3.048181	0.972323	-0.218422	-0.082947	0.217865	0.975851	-0.015821	0.084400	-0.002688	0.996428						
04743														3.388039	-16.388992	1.077239	0.971407	-0.211158	-0.108537	0.215562	0.976015	0.030447	0.099505	-0.052973	0.993626						
04744														2.016597	-15.715535	-0.835973	0.968070	-0.217996	-0.123766	0.226345	0.972331	0.057800	0.107741	-0.083968	0.990627						
04745														-3.351495	-12.619949	-2.761286	0.965397	-0.229235	-0.124337	0.238017	0.969350	0.060893	0.106567	-0.088381	0.990370						
04746														-2.721507	-17.389139	-1.464211	0.969473	-0.236015	-0.066472	0.237651	0.971188	0.017770	0.060362	-0.033025	0.997630						
04747														7.848064	-11.511637	11.892645	0.971874	-0.234588	-0.020729	0.234759	0.972034	0.006221	0.018690	-0.010912	0.999766						
04748														0.115929	-7.023074	11.771283	0.971728	-0.235595	-0.015495	0.235667	0.971829	0.002945	0.014365	-0.006513	0.999876						
04749														-1.293835	-5.851393	7.718341	0.971896	-0.235058	-0.012900	0.235059	0.971980	-0.001483	0.012887	-0.001591	0.999916						
04750														-0.182106	-7.205666	7.031995	0.971892	-0.235093	-0.012576	0.235027	0.971967	-0.006467	0.013744	0.003329	0.999900						
04751														-1.328471	-6.332243	7.695523	0.971847	-0.235202	-0.013874	0.235080	0.971926	-0.009879	0.015808	0.006339	0.999855						
04752														-1.619745	-5.564491	8.180501	0.971814	-0.235290	-0.014697	0.235113	0.971884	-0.012796	0.017295	0.008980	0.999810						
04753														-1.591186	-6.012887	7.722580	0.971842	-0.235135	-0.015296	0.234912	0.971900	-0.015084	0.018413	0.011066	0.999769						
04754														-1.105996	-6.284480	7.643316	0.971865	-0.235033	-0.015420	0.234775	0.971903	-0.016885	0.018955	0.012790	0.999739						
04755														-1.229129	-6.191443	7.760595	0.971887	-0.234915	-0.015826	0.234616	0.971908	-0.018691	0.019772	0.014452	0.999700						
04756														-1.693452	-5.949199	7.829937	0.971894	-0.234910	-0.015503	0.234594	0.971892	-0.019787	0.019716	0.015594	0.999684						
04757														-1.411347	-6.116253	7.658302	0.971905	-0.234917	-0.014650	0.234605	0.971879	-0.020276	0.019001	0.016269	0.999687						
04758														-1.049865	-6.101251	7.693852	0.971926	-0.234869	-0.014025	0.234561	0.971882	-0.020649	0.018481	0.016780	0.999688						
04759														-1.044403	-5.814937	7.898599	0.971962	-0.234693	-0.014456	0.234370	0.971920	-0.021054	0.018991	0.017075	0.999674						
04760														-1.030391	-5.970543	7.746613	0.972015	-0.234383	-0.015836	0.234031	0.971995	-0.021339	0.020394	0.017036	0.999647						
04761														-1.250490	-5.929774	7.647893	0.972028	-0.234208	-0.017550	0.233834	0.972050	-0.020981	0.021974	0.016290	0.999626						
04762														-1.498578	-5.846365	7.715628	0.972004	-0.234214	-0.018776	0.233849	0.972072	-0.019745	0.022876	0.014802	0.999629						
04763														-1.125143	-6.138857	7.603994	0.971977	-0.234249	-0.019692	0.233915	0.972093	-0.017845	0.023323	0.012739	0.999647						
04764														-0.774265	-6.200320	7.511496	0.971902	-0.234409	-0.021420	0.234117	0.972088	-0.015297	0.024407	0.009852	0.999654						
04765														-0.816605	-6.471535	7.112138	0.971752	-0.234719	-0.024596	0.234496	0.972047	-0.011656	0.026644	0.005560	0.999630						
04766														-1.482997	-5.106780	8.141304	0.971621	-0.235036	-0.026646	0.234890	0.971984	-0.008559	0.027911	0.002058	0.999608						
04767														-2.850608	-3.954034	8.955366	0.971585	-0.235337	-0.025285	0.235234	0.971913	-0.007049	0.026234	0.000901	0.999655						
04768														-1.287887	-5.710654	8.050497	0.971589	-0.235627	-0.022235	0.235504	0.971840	-0.008009	0.023496	0.002545	0.999721						
04769														-0.520532	-7.087181	7.186583	0.971566	-0.235955	-0.019596	0.235787	0.971748	-0.010538	0.021529	0.005618	0.999752						
04770														-1.199622	-6.304266	7.573469	0.971488	-0.236452	-0.017343	0.236245	0.971604	-0.013184	0.019968	0.008711	0.999763						
04771														-1.666493	-5.831202	7.837649	0.971468	-0.236721	-0.014583	0.236523	0.971524	-0.014083	0.017501	0.010232	0.999794						
04772														-1.681331	-5.757498	7.793586	0.971512	-0.236739	-0.010914	0.236592	0.971519	-0.013203	0.013729	0.010244	0.999853						
04773														-1.898709	-5.748693	8.169464	0.971491	-0.237000	-0.005953	0.236895	0.971426	-0.014576	0.009237	0.012750	0.999876						
04774														-2.070019	-5.216774	8.575160	0.971292	-0.237883	0.001884	0.237873	0.971097	-0.019692	0.002855	0.019575	0.999804						
04775														-2.852111	-4.442261	9.726727	0.971109	-0.238082	0.016243	0.238492	0.970636	-0.031420	-0.008286	0.034386	0.999374						
04776														-1.760570	-5.088815	10.827792	0.968988	-0.244878	0.033128	0.246520	0.967199	-0.061273	-0.017037	0.067540	0.997571						
04777														-3.461602	-5.379464	12.167235	0.963886	-0.259963	0.057813	0.265123	0.957197	-0.116118	-0.025152	0.127253	0.991551						
04778														-3.977674	-6.109267	11.700005	0.954924	-0.282217	0.092053	0.295085	0.936220	-0.190834	-0.032325	0.209395	0.977297						
04779														-3.556204	-8.238710	10.570282	0.943082	-0.302609	0.137927	0.329965	0.903159	-0.274640	-0.041461	0.304519	0.951604						
04780														-6.583902	-6.960579	11.356263	0.933242	-0.298431	0.199994	0.352613	0.867429	-0.351043	-0.068718	0.398129	0.914752						
04781														-1.944014	-5.166537	12.552164	0.933148	-0.289716	0.212835	0.353105	0.849772	-0.391413	-0.067463	0.440399	0.895264						
04782														-4.808114	1.510092	9.668690	0.939093	-0.281451	0.197204	0.339960	0.844822	-0.413162	-0.050318	0.455039	0.889049						
04783														-0.912088	0.702713	10.152761	0.943081	-0.282794	0.175003	0.331140	0.847157	-0.415537	-0.030744	0.449836	0.892582						
04784														0.176715	0.596571	9.651199	0.945671	-0.286353	0.153976	0.324631	0.857744	-0.398610	-0.017929	0.426939	0.904103						
04785														0.414648	-0.771462	9.546969	0.948302	-0.288959	0.131245	0.317227	0.875380	-0.364798	-0.009478	0.387573	0.921790						
04786														0.286463	-2.481591	9.538847	0.951003	-0.290728	0.105218	0.309175	0.896525	-0.317261	-0.002094	0.334246	0.942483						
04787														-0.437783	-4.080060	9.722977	0.954086	-0.289514	0.076826	0.299501	0.918244	-0.259088	0.004465	0.270201	0.962793						
04788														-0.976494	-5.146720	9.614516	0.957684	-0.284156	0.045786	0.287548	0.937668	-0.195180	0.012530	0.200086	0.979698						
04789														-1.892164	-6.538490	8.942953	0.962217	-0.272019	0.011998	0.271142	0.953223	-0.133593	0.024903	0.131799	0.990964						
04790														-0.909388	-9.236366	7.691918	0.966930	-0.253913	-0.023974	0.251274	0.964524	-0.080967	0.043682	0.072265	0.996428						
04791														1.822207	-14.928613	5.341386	0.968184	-0.241703	-0.064806	0.239546	0.970088	-0.039329	0.072374	0.022554	0.997123						
04792														4.735871	-21.391773	2.051820	0.963332	-0.244298	-0.110954	0.245666	0.969354	-0.001382	0.107892	-0.025926	0.993825						
04793														2.143485	-19.671523	-1.452566	0.954746	-0.259826	-0.144744	0.267448	0.962914	0.035615	0.130123	-0.072715	0.988828						
04794														1.454420	-16.312971	-3.521558	0.947933	-0.281343	-0.149229	0.291199	0.955434	0.048469	0.128942	-0.089401	0.987614						
04795														-1.712972	-13.981458	-2.576883	0.944456	-0.293045	-0.148755	0.301346	0.952827	0.036211	0.131126	-0.079027	0.988211						
04796														-5.684179	-14.085806	0.525443	0.953440	-0.280774	-0.110086	0.282849	0.959159	0.003385	0.104640	-0.034365	0.993916						
04797														0.177213	-8.389751	8.149801	0.964055	-0.261403	-0.047598	0.261521	0.965190	-0.003851	0.046948	-0.008735	0.998859						
04798														8.087390	-8.568028	11.880309	0.964796	-0.262669	-0.013185	0.262633	0.964886	-0.004424	0.013884	0.000805	0.999903						
04799														-2.318993	-4.040468	10.354428	0.964570	-0.263683	-0.008731	0.263653	0.964607	-0.004445	0.009594	0.001986	0.999952						
04800														0.270481	-7.378595	7.239246	0.964553	-0.263830	-0.005599	0.263780	0.964547	-0.008337	0.007600	0.006565	0.999950						
04801														-0.032483	-6.774326	7.443405	0.964530	-0.263922	-0.005155	0.263845	0.964489	-0.012141	0.008176	0.010350	0.999913						
04802														-1.550810	-5.778671	7.945848	0.964588	-0.263662	-0.007256	0.263539	0.964539	-0.014565	0.010839	0.012137	0.999868						
04803														-1.884492	-5.978512	7.774902	0.964652	-0.263420	-0.007486	0.263274	0.964583	-0.016311	0.011517	0.013764	0.999839						
04804														-1.149639	-6.285150	7.633092	0.964762	-0.263030	-0.007076	0.262876	0.964669	-0.017599	0.011455	0.015119	0.999820						
04805														-1.272697	-6.411511	7.498796	0.964888	-0.262593	-0.006060	0.262454	0.964785	-0.017558	0.010458	0.015350	0.999827						
04806														-0.753220	-5.962366	7.917467	0.964965	-0.262314	-0.005788	0.262186	0.964869	-0.016939	0.010028	0.014828	0.999840						
04807														-1.354306	-5.626917	8.152861	0.965003	-0.262158	-0.006515	0.262019	0.964914	-0.016949	0.010730	0.014648	0.999835						
04808														-1.143427	-6.191592	7.717387	0.964995	-0.262174	-0.006978	0.262022	0.964903	-0.017511	0.011324	0.015069	0.999822						
04809														-1.023821	-6.205180	7.630937	0.964975	-0.262230	-0.007632	0.262066	0.964888	-0.017689	0.012002	0.015070	0.999814						
04810														-1.370476	-5.927089	7.768129	0.964942	-0.262335	-0.008171	0.262165	0.964863	-0.017559	0.012490	0.014801	0.999812						
04811														-1.063427	-5.886425	7.849985	0.964904	-0.262459	-0.008730	0.262281	0.964833	-0.017503	0.013017	0.014599	0.999809						
04812														-1.295927	-5.777234	7.812011	0.964869	-0.262553	-0.009694	0.262361	0.964811	-0.017512	0.013951	0.014354	0.999800						
04813														-1.182675	-5.915343	7.691471	0.964852	-0.262591	-0.010322	0.262396	0.964808	-0.017118	0.014454	0.013808	0.999800						
04814														-1.145628	-5.902499	7.680776	0.964826	-0.262666	-0.010847	0.262479	0.964804	-0.016067	0.014685	0.012655	0.999812						
04815														-1.140696	-5.838390	7.781630	0.964791	-0.262774	-0.011329	0.262607	0.964796	-0.014348	0.014701	0.010868	0.999833						
04816														-0.980856	-6.123030	7.642458	0.964736	-0.262951	-0.011922	0.262808	0.964770	-0.012305	0.014738	0.008738	0.999853						
04817														-1.146036	-5.903829	7.736905	0.964657	-0.263209	-0.012531	0.263097	0.964718	-0.009933	0.014704	0.006285	0.999872						
04818														-1.055175	-5.798147	7.769953	0.964558	-0.263552	-0.012980	0.263472	0.964638	-0.007528	0.014505	0.003842	0.999887						
04819														-1.205948	-5.984207	7.688078	0.964463	-0.263905	-0.012841	0.263857	0.964547	-0.005310	0.013787	0.001733	0.999903						
04820														-1.522715	-5.638081	7.969617	0.964393	-0.264243	-0.011027	0.264227	0.964456	-0.002890	0.011399	-0.000126	0.999935						
04821														-1.724220	-5.073198	8.326137	0.964387	-0.264377	-0.007954	0.264371	0.964419	-0.001870	0.008166	-0.000299	0.999967						
04822														-1.611259	-5.030491	8.528798	0.964323	-0.264698	-0.003933	0.264680	0.964325	-0.004670	0.005029	0.003462	0.999981						
04823														-1.724178	-5.861002	8.362462	0.964127	-0.265440	0.000972	0.265432	0.964055	-0.012017	0.002253	0.011844	0.999927						
04824														-3.280382	-4.951881	9.434233	0.964542	-0.263633	0.012531	0.263876	0.964218	-0.025546	-0.005348	0.027947	0.999595						
04825														-2.791521	-4.134445	11.847521	0.962896	-0.268075	0.031109	0.269530	0.961077	-0.060698	-0.013627	0.066831	0.997671						
04826														-3.310536	-4.650654	13.434553	0.957615	-0.282196	0.057786	0.287401	0.949501	-0.125889	-0.019343	0.137161	0.990360						
04827														-2.668841	-6.501343	11.832189	0.949094	-0.301353	0.091692	0.314369	0.924508	-0.215537	-0.019817	0.233390	0.972181						
04828														-4.987356	-8.302252	11.036915	0.937710	-0.319708	0.135967	0.346842	0.884038	-0.313332	-0.020025	0.340974	0.939859						
04829														-8.871305	-7.659648	10.980859	0.929417	-0.305753	0.206638	0.365450	0.840395	-0.400228	-0.051286	0.447494	0.892815						
04830														0.095517	-7.224936	12.495880	0.933596	-0.280318	0.223206	0.353159	0.825232	-0.440762	-0.060643	0.490321	0.869430						
04831														-5.966444	3.066076	8.249248	0.943992	-0.267151	0.193674	0.327746	0.827150	-0.456514	-0.038239	0.494422	0.868381						
04832														0.460774	0.628652	9.305568	0.950404	-0.264394	0.163792	0.310574	0.834897	-0.454412	-0.016605	0.482745	0.875604						
04833														0.272167	0.542706	9.086731	0.952449	-0.271774	0.137767	0.304697	0.850841	-0.428052	-0.000884	0.449675	0.893192						
04834														1.074411	-0.940028	8.951296	0.952129	-0.283721	0.113812	0.305564	0.872283	-0.381777	0.009042	0.398278	0.917220						
04835														0.192849	-2.449095	8.888892	0.951451	-0.294567	0.089279	0.307461	0.895943	-0.320553	0.014435	0.332441	0.943014						
04836														-1.272230	-4.389167	8.565487	0.952809	-0.297063	0.062524	0.303075	0.919079	-0.251872	0.017358	0.258936	0.965739						
04837														-1.851043	-6.547195	7.910574	0.957321	-0.287166	0.032748	0.288057	0.938688	-0.189443	0.023662	0.190791	0.981345						
04838														-1.327730	-12.319819	8.469310	0.964355	-0.264548	-0.005789	0.261473	0.956049	-0.132670	0.040632	0.126427	0.991143						
04839														-0.216932	-14.876503	5.994457	0.972200	-0.229850	-0.044678	0.226321	0.971355	-0.072452	0.060051	0.060327	0.996371						
04840														1.847282	-16.178818	3.057498	0.978023	-0.196336	-0.070164	0.195018	0.980475	-0.025233	0.073748	0.010995	0.997216						
04841														2.172450	-16.946465	0.575622	0.980512	-0.178992	-0.080984	0.180179	0.983605	0.007536	0.078308	-0.021981	0.996687						
04842														1.666948	-17.654189	-1.230498	0.980971	-0.175199	-0.083678	0.178091	0.983604	0.028393	0.077332	-0.042755	0.996088						
04843														1.060283	-14.715716	-2.580649	0.980449	-0.177452	-0.085032	0.181062	0.982784	0.036759	0.077045	-0.051436	0.995700						
04844														0.344910	-12.980253	-1.674650	0.979832	-0.179896	-0.086988	0.182708	0.982838	0.025451	0.080917	-0.040831	0.995884						
04845														-6.525966	-12.262578	2.773917	0.980973	-0.179520	-0.073922	0.179979	0.983670	-0.000457	0.072797	-0.012856	0.997264						
04846														1.227727	-7.069114	11.136328	0.986532	-0.162967	-0.014008	0.162919	0.986629	-0.004455	0.014547	0.002113	0.999892						
04847														7.948978	-6.779972	11.890729	0.986408	-0.164175	-0.006753	0.164179	0.986430	0.000051	0.006653	-0.001160	0.999977						
04848														-4.433572	-5.571174	8.907173	0.986335	-0.164545	-0.008207	0.164529	0.986369	-0.002632	0.008528	0.001245	0.999963						
04849														0.127764	-6.950341	7.463369	0.986315	-0.164580	-0.009767	0.164498	0.986339	-0.008735	0.011071	0.007009	0.999914						
04850														-0.587121	-6.402457	7.497689	0.986291	-0.164563	-0.012201	0.164396	0.986300	-0.013649	0.014280	0.011456	0.999832						
04851														-1.764432	-6.022644	7.584972	0.986274	-0.164359	-0.015768	0.164095	0.986302	-0.016789	0.018311	0.013971	0.999735						
04852														-2.061604	-6.253084	7.682017	0.986251	-0.164555	-0.015167	0.164266	0.986240	-0.018648	0.018027	0.015900	0.999711						
04853														-1.268482	-6.557216	7.449330	0.986272	-0.164593	-0.013305	0.164310	0.986203	-0.020119	0.016432	0.017656	0.999709						
04854														-1.185648	-6.038210	7.762728	0.986285	-0.164683	-0.010982	0.164433	0.986171	-0.020726	0.014243	0.018636	0.999725						
04855														-1.090212	-5.588514	8.189671	0.986282	-0.164781	-0.009790	0.164543	0.986134	-0.021557	0.013207	0.019650	0.999720						
04856														-0.840471	-5.972800	7.979692	0.986267	-0.164836	-0.010353	0.164558	0.986085	-0.023618	0.014102	0.021590	0.999667						
04857														-1.245607	-6.209070	7.674663	0.986241	-0.164908	-0.011598	0.164560	0.986014	-0.026380	0.015786	0.024108	0.999585						
04858														-1.355444	-6.208542	7.519777	0.986207	-0.165074	-0.012115	0.164678	0.985935	-0.028519	0.016652	0.026131	0.999520						
04859														-1.311965	-5.992695	7.689639	0.986197	-0.165101	-0.012513	0.164674	0.985900	-0.029710	0.017242	0.027240	0.999480						
04860														-1.429406	-5.975698	7.633739	0.986159	-0.165343	-0.012319	0.164921	0.985859	-0.029716	0.017058	0.027273	0.999482						
04861														-0.943145	-6.180724	7.579839	0.986131	-0.165518	-0.012214	0.165109	0.985846	-0.029102	0.016858	0.026681	0.999502						
04862														-1.074061	-5.968254	7.685877	0.986116	-0.165555	-0.012907	0.165138	0.985857	-0.028549	0.017451	0.026021	0.999509						
04863														-1.186990	-5.751087	7.833637	0.986105	-0.165535	-0.013967	0.165108	0.985889	-0.027598	0.018338	0.024909	0.999522						
04864														-0.994517	-6.105384	7.640396	0.986107	-0.165399	-0.015368	0.164961	0.985947	-0.026378	0.019515	0.023477	0.999534						
04865														-1.153892	-6.076077	7.623397	0.986088	-0.165333	-0.017162	0.164880	0.985994	-0.025121	0.021075	0.021942	0.999537						
04866														-0.996315	-6.075794	7.566830	0.986045	-0.165393	-0.018967	0.164930	0.986017	-0.023852	0.022647	0.020391	0.999536						
04867														-0.994069	-6.132426	7.345780	0.985957	-0.165657	-0.021134	0.165194	0.986014	-0.022077	0.024495	0.018276	0.999533						
04868														-1.666712	-5.598949	7.811356	0.985874	-0.166032	-0.022059	0.165591	0.985981	-0.020522	0.025157	0.016579	0.999546						
04869														-1.756228	-5.081689	8.344918	0.985835	-0.166363	-0.021294	0.165939	0.985926	-0.020336	0.024377	0.016515	0.999566						
04870														-1.596945	-5.557444	8.136113	0.985825	-0.166665	-0.019282	0.166236	0.985839	-0.022071	0.022688	0.018552	0.999570						
04871														-1.089842	-6.440386	7.580279	0.985792	-0.167110	-0.017009	0.166661	0.985695	-0.025084	0.020957	0.021893	0.999541						
04872														-1.207999	-6.309710	7.754605	0.985725	-0.167706	-0.014836	0.167204	0.985456	-0.030306	0.019703	0.027393	0.999431						
04873														-2.340071	-4.877569	9.189752	0.985755	-0.167900	-0.009847	0.167388	0.985086	-0.039841	0.016390	0.037625	0.999157						
04874														-2.906792	-4.307879	10.639900	0.985431	-0.170075	-0.000597	0.169683	0.983386	-0.064494	0.011555	0.063453	0.997918						
04875														-2.409623	-5.328018	11.834540	0.983785	-0.179205	0.007304	0.178904	0.977620	-0.110688	0.012695	0.110200	0.993828						
04876														-3.476367	-4.925407	13.237116	0.981192	-0.191703	0.022615	0.192520	0.963308	-0.187011	0.014066	0.187848	0.982097						
04877														-2.001199	-6.634538	12.378591	0.976873	-0.208733	0.046367	0.213118	0.932928	-0.290216	0.017320	0.293386	0.955837						
04878														-5.451913	-8.543748	10.781185	0.970217	-0.229781	0.076683	0.240877	0.881625	-0.405852	0.025651	0.412236	0.910716						
04879														-10.155568	-8.713168	10.118888	0.964229	-0.221558	0.145515	0.264976	0.820373	-0.506730	-0.007107	0.527162	0.849735						
04880														0.012430	-13.255324	12.351236	0.964966	-0.185563	0.185492	0.259046	0.786065	-0.561246	-0.041663	0.589634	0.806595						
04881														-4.699552	1.177665	9.278203	0.969099	-0.188581	0.159009	0.245982	0.786940	-0.565878	-0.018417	0.587506	0.809010						
04882														-0.719086	1.450482	8.247106	0.970376	-0.194211	0.143707	0.241572	0.788789	-0.565204	-0.003586	0.583176	0.812338						
04883														-0.386588	0.869128	9.185056	0.968621	-0.212540	0.128843	0.248249	0.802079	-0.543177	0.012104	0.558118	0.829674						
04884														-0.122558	0.279351	8.732115	0.965896	-0.231288	0.116406	0.258152	0.825368	-0.502121	0.020057	0.515047	0.856927						
04885														-0.254293	-1.088197	8.647488	0.963834	-0.247744	0.098216	0.265089	0.853338	-0.448934	0.027409	0.458734	0.888151						
04886														-0.598690	-2.934054	9.050918	0.963743	-0.255782	0.075996	0.264878	0.882649	-0.388292	0.032240	0.394343	0.918398						
04887														-0.079911	-5.298220	9.709171	0.964681	-0.259013	0.047993	0.260337	0.909628	-0.323730	0.040195	0.324790	0.944932						
04888														-0.301222	-8.208914	10.702378	0.964928	-0.262408	0.007549	0.255414	0.931791	-0.257932	0.060649	0.250814	0.966134						
04889														-2.100028	-11.177666	11.638171	0.964871	-0.259229	-0.042722	0.246732	0.949943	-0.191655	0.090266	0.174382	0.980532						
04890														-3.525221	-15.208929	11.875488	0.965845	-0.242095	-0.092380	0.230065	0.965224	-0.124152	0.119224	0.098658	0.987954						
04891														-4.564464	-20.612971	10.727726	0.969418	-0.209971	-0.127051	0.206022	0.977575	-0.043613	0.133360	0.016104	0.990937						
04892														-1.466679	-20.755557	7.727666	0.974120	-0.172775	-0.145738	0.182430	0.981645	0.055610	0.133455	-0.080758	0.987759						
04893														2.033670	-17.561255	3.586889	0.975892	-0.144417	-0.163644	0.169539	0.973781	0.151678	0.137449	-0.175766	0.974789						
04894														3.985383	-17.741909	-4.766501	0.973764	-0.133407	-0.184354	0.174249	0.958179	0.227003	0.146361	-0.253171	0.956286						
04895														7.697895	-18.146395	-12.584375	0.967428	-0.142501	-0.209228	0.197829	0.941267	0.273641	0.157945	-0.306120	0.938799						
04896														1.390893	-7.407036	-7.207164	0.963012	-0.172069	-0.207365	0.223414	0.940109	0.257453	0.150646	-0.294259	0.943778						
04897														0.061547	-10.847042	-0.668776	0.958980	-0.209718	-0.190724	0.246440	0.949273	0.195314	0.140089	-0.234304	0.962017						
04898														-2.915698	-14.453184	3.364860	0.955018	-0.236436	-0.178991	0.262486	0.954839	0.139227	0.137989	-0.179947	0.973950						
04899														-3.825786	-12.130038	5.104061	0.955079	-0.244374	-0.167648	0.263961	0.958649	0.106377	0.134720	-0.145851	0.980091						
04900														-2.550251	-7.152418	5.236690	0.957826	-0.240269	-0.157610	0.254208	0.964243	0.074927	0.133972	-0.111832	0.984655						
04901														-1.446274	-8.550105	6.297443	0.959049	-0.235044	-0.158050	0.242874	0.969532	0.031922	0.145731	-0.069001	0.986915						
04902														-3.730982	-9.401736	7.813877	0.956246	-0.232120	-0.178086	0.237295	0.971404	0.008029	0.171130	-0.049937	0.983982						
04903														-20.811666	5.135298	25.469238	0.973031	-0.204809	-0.106135	0.209371	0.977256	0.033670	0.096825	-0.054984	0.993781						
04904														8.985784	9.647534	16.311725	0.977566	-0.208162	-0.032142	0.208901	0.977698	0.021624	0.026924	-0.027854	0.999249						
04905														0.701250	-11.303251	11.719986	0.977643	-0.209215	-0.021044	0.209496	0.977734	0.012143	0.018035	-0.016280	0.999705						
04906														2.559691	-10.643394	5.214791	0.977977	-0.207957	-0.017745	0.208092	0.978090	0.006114	0.016084	-0.009671	0.999824						
04907														-2.139667	-7.139461	6.909356	0.978073	-0.207517	-0.017616	0.207612	0.978204	0.003726	0.016459	-0.007301	0.999838						
04908														-1.779264	-3.591163	9.399592	0.978136	-0.207233	-0.017450	0.207320	0.978267	0.003337	0.016379	-0.006882	0.999842						
04909														-1.251833	-6.015294	8.196745	0.978269	-0.206508	-0.018530	0.206587	0.978425	0.002436	0.017627	-0.006211	0.999825						
04910														-0.869570	-8.017168	6.631696	0.978365	-0.205977	-0.019389	0.206061	0.978536	0.002385	0.018482	-0.006328	0.999809						
04911														-1.007081	-6.203667	7.949901	0.978385	-0.205798	-0.020255	0.205885	0.978573	0.002275	0.019353	-0.006396	0.999792						
04912														-1.208377	-4.755914	8.840457	0.978362	-0.205570	-0.023433	0.205650	0.978625	0.001016	0.022723	-0.005813	0.999725						
04913														-1.893098	-5.376515	8.079527	0.978317	-0.205360	-0.026888	0.205417	0.978674	-0.000669	0.026452	-0.004869	0.999638						
04914														-1.455076	-6.308058	7.364605	0.978279	-0.205313	-0.028581	0.205339	0.978689	-0.002074	0.028398	-0.003840	0.999589						
04915														-1.284855	-5.736818	7.792425	0.978250	-0.205278	-0.029790	0.205284	0.978698	-0.002862	0.029743	-0.003316	0.999552						
04916														-1.810652	-5.107652	8.154702	0.978236	-0.205257	-0.030398	0.205257	0.978703	-0.003172	0.030402	-0.003136	0.999533						
04917														-1.185156	-5.660250	7.813003	0.978229	-0.205265	-0.030562	0.205264	0.978701	-0.003194	0.030567	-0.003149	0.999528						
04918														-1.000005	-5.950532	7.672916	0.978184	-0.205287	-0.031835	0.205279	0.978697	-0.003559	0.031887	-0.003053	0.999487						
04919														-1.387092	-5.770423	7.839254	0.978136	-0.205270	-0.033379	0.205255	0.978701	-0.003892	0.033467	-0.003045	0.999435						
04920														-1.502253	-5.699621	7.879064	0.978070	-0.205372	-0.034667	0.205343	0.978680	-0.004409	0.034834	-0.002806	0.999389						
04921														-1.531736	-5.770561	7.860782	0.977997	-0.205593	-0.035402	0.205537	0.978635	-0.005255	0.035726	-0.002137	0.999359						
04922														-1.479702	-5.941600	7.694393	0.977910	-0.205984	-0.035542	0.205892	0.978555	-0.006251	0.036067	-0.001205	0.999349						
04923														-1.543623	-5.867200	7.705188	0.977823	-0.206577	-0.034466	0.206437	0.978430	-0.007606	0.035294	0.000322	0.999377						
04924														-1.465758	-5.514853	7.931453	0.977724	-0.207357	-0.032529	0.207171	0.978263	-0.009022	0.033692	0.002082	0.999430						
04925														-1.463971	-5.770852	7.792328	0.977628	-0.208263	-0.029507	0.208027	0.978063	-0.010890	0.031128	0.004509	0.999505						
04926														-1.332678	-5.942602	7.694195	0.977511	-0.209268	-0.026066	0.208990	0.977831	-0.012994	0.028207	0.007255	0.999576						
04927														-1.333782	-5.932145	7.678377	0.977400	-0.210214	-0.022325	0.209920	0.977606	-0.014816	0.024939	0.009795	0.999641						
04928														-1.380639	-5.692147	7.845972	0.977272	-0.211209	-0.018173	0.210914	0.977359	-0.016881	0.021327	0.012665	0.999692						
04929														-1.204653	-5.668493	7.940218	0.977084	-0.212371	-0.014353	0.212080	0.977059	-0.019439	0.018152	0.015949	0.999708						
04930														-0.830880	-6.170022	7.582177	0.976876	-0.213499	-0.011491	0.213212	0.976755	-0.022154	0.015953	0.019192	0.999689						
04931														-1.075757	-6.287583	7.520568	0.976690	-0.214466	-0.009047	0.214187	0.976473	-0.024991	0.014194	0.022470	0.999647						
04932														-1.499276	-5.566584	8.000578	0.976447	-0.215684	-0.005685	0.215446	0.976111	-0.028108	0.011612	0.026221	0.999589						
04933														-1.726106	-5.771502	7.865153	0.976069	-0.217461	-0.000553	0.217329	0.975561	-0.032376	0.007580	0.031481	0.999476						
04934														-1.381736	-6.031756	7.824914	0.975445	-0.220126	0.007146	0.220238	0.974706	-0.037982	0.001396	0.038623	0.999253						
04935														-1.201666	-6.038560	7.997532	0.974861	-0.222206	0.016434	0.222738	0.973793	-0.045997	-0.005782	0.048501	0.998806						
04936														-1.090669	-5.960321	8.212146	0.974084	-0.224651	0.026316	0.225830	0.972476	-0.057364	-0.012705	0.061820	0.998006						
04937														-1.227284	-5.893465	8.705400	0.973054	-0.227829	0.035501	0.229899	0.970426	-0.073625	-0.017677	0.079802	0.996654						
04938														-2.394446	-5.594290	9.945479	0.971186	-0.233877	0.045812	0.237426	0.966142	-0.100987	-0.020643	0.108954	0.993832						
04939														-3.119336	-5.852124	10.928032	0.967264	-0.245727	0.063391	0.252604	0.956224	-0.147738	-0.024313	0.158914	0.986993						
04940														-3.745873	-6.675989	11.835064	0.959462	-0.266767	0.090932	0.280433	0.935811	-0.213575	-0.028120	0.230417	0.972686						
04941														-4.868043	-8.296936	12.372151	0.946819	-0.294897	0.128720	0.320483	0.899982	-0.295504	-0.028702	0.321042	0.946630						
04942														-6.736537	-10.118293	11.456694	0.931763	-0.308750	0.191024	0.360242	0.851703	-0.380563	-0.045197	0.423410	0.904810						
04943														-3.795134	-11.278208	11.941933	0.922564	-0.284478	0.260667	0.376462	0.811725	-0.446519	-0.084565	0.510074	0.855963						
04944														-4.079909	-2.889397	9.659589	0.926022	-0.278482	0.254814	0.370794	0.797491	-0.475940	-0.070671	0.535215	0.841754						
04945														-1.205583	-2.293965	8.878312	0.931715	-0.268760	0.244283	0.358046	0.792497	-0.493711	-0.060904	0.547463	0.834610						
04946														-0.522852	0.266528	7.804742	0.932945	-0.276739	0.230280	0.356881	0.795147	-0.490283	-0.047426	0.539589	0.840591						
04947														0.327149	0.488028	7.543178	0.932625	-0.291398	0.212830	0.359284	0.804696	-0.472631	-0.033539	0.517254	0.855174						
04948														0.987854	-0.150707	7.897997	0.932529	-0.308945	0.186930	0.360723	0.820520	-0.443425	-0.016386	0.480937	0.876602						
04949														1.205973	-2.195962	8.624018	0.932062	-0.326265	0.157514	0.362294	0.841411	-0.400961	-0.001715	0.430787	0.902452						
04950														1.744117	-3.248872	9.141573	0.931326	-0.341108	0.127580	0.364112	0.865057	-0.345108	0.007355	0.367861	0.929852						
04951														2.018332	-4.841584	9.523704	0.929630	-0.355331	0.097611	0.368262	0.886462	-0.280300	0.013071	0.296521	0.954937						
04952														1.331341	-6.392567	9.318057	0.927543	-0.367067	0.070182	0.373432	0.903023	-0.212363	0.014576	0.223184	0.974667						
04953														0.191548	-8.156333	8.565740	0.926705	-0.373505	0.041374	0.375328	0.914480	-0.151178	0.018630	0.155627	0.987640						
04954														-0.780818	-12.014339	8.542738	0.929811	-0.368000	0.005304	0.366633	0.924907	-0.100629	0.032126	0.095510	0.994910						
04955														-1.407970	-15.630480	7.082568	0.937113	-0.346945	-0.038045	0.345187	0.937407	-0.045989	0.051619	0.029965	0.998217						
04956														1.032256	-14.377285	3.683234	0.946641	-0.314384	-0.070943	0.315381	0.948960	0.003022	0.066372	-0.025234	0.997476						
04957														3.724370	-13.369891	1.896877	0.954505	-0.283213	-0.093335	0.287213	0.957320	0.032361	0.080187	-0.057696	0.995109						
04958														2.838043	-13.998673	1.323501	0.960504	-0.260640	-0.097466	0.265650	0.963140	0.042326	0.082842	-0.066546	0.994338						
04959														1.663766	-15.158008	0.801306	0.964730	-0.249667	-0.083439	0.254051	0.966063	0.046697	0.068948	-0.066248	0.995418						
04960														1.811136	-10.988094	-1.131104	0.965840	-0.251277	-0.063345	0.254221	0.966163	0.043605	0.050245	-0.058219	0.997039						
04961														-1.115669	-11.519090	-1.010110	0.964713	-0.262149	-0.024645	0.262410	0.964924	0.007970	0.021691	-0.014156	0.999665						
04962														2.949522	-14.464235	1.333357	0.962380	-0.269588	0.033856	0.270472	0.962405	-0.024917	-0.025866	0.033136	0.999116						
04963														0.667650	-10.251047	1.334691	0.959810	-0.273471	0.063081	0.277138	0.958997	-0.059319	-0.044273	0.074417	0.996244						
04964														9.406699	-17.226684	11.209157	0.959568	-0.277337	0.048095	0.280391	0.956804	-0.076865	-0.024700	0.087242	0.995881						
04965														-14.759474	0.573956	12.689787	0.951711	-0.306708	0.013287	0.306992	0.950610	-0.045788	0.001413	0.047656	0.998863						
04966														1.910435	-3.406714	8.950504	0.951992	-0.305378	0.021331	0.305709	0.952016	-0.014388	-0.015914	0.020218	0.999669						
04967														0.110674	-4.437228	11.175656	0.951330	-0.307898	0.013075	0.307989	0.951374	-0.005579	-0.010721	0.009334	0.999899						
04968														-2.108127	-6.916173	8.512646	0.951288	-0.308105	0.011068	0.308208	0.951274	-0.009242	-0.007681	0.012203	0.999896						
04969														-1.077568	-5.955866	7.803698	0.951434	-0.307708	0.009431	0.307820	0.951334	-0.014517	-0.004505	0.016715	0.999850						
04970														-0.841533	-6.197936	7.395830	0.951494	-0.307599	0.006535	0.307667	0.951345	-0.016870	-0.001028	0.018062	0.999836						
04971														-1.102614	-6.681432	7.204295	0.951524	-0.307557	0.003312	0.307566	0.951360	-0.017826	0.002332	0.017980	0.999836						
04972														-0.760940	-6.233307	7.730462	0.951558	-0.307468	0.000488	0.307424	0.951394	-0.018423	0.005200	0.017681	0.999830						
04973														-1.280237	-5.717672	8.166329	0.951673	-0.307096	-0.003116	0.306983	0.951519	-0.019337	0.008903	0.017446	0.999808						
04974														-1.860144	-5.709638	8.072648	0.951768	-0.306765	-0.005687	0.306595	0.951619	-0.020495	0.011699	0.017763	0.999774						
04975														-1.438378	-6.051653	7.819682	0.951803	-0.306636	-0.006787	0.306427	0.951640	-0.021998	0.013204	0.018858	0.999735						
04976														-0.952928	-6.515320	7.380934	0.951810	-0.306604	-0.007163	0.306370	0.951629	-0.023250	0.013945	0.019935	0.999704						
04977														-1.107261	-6.060713	7.680400	0.951779	-0.306684	-0.007849	0.306427	0.951594	-0.023905	0.014800	0.020347	0.999683						
04978														-1.113100	-5.745655	7.967576	0.951736	-0.306780	-0.009171	0.306486	0.951558	-0.024592	0.016271	0.020594	0.999656						
04979														-1.211180	-5.942938	7.716467	0.951688	-0.306881	-0.010636	0.306548	0.951525	-0.025074	0.017815	0.020602	0.999629						
04980														-1.288492	-5.971682	7.698887	0.951641	-0.306989	-0.011681	0.306628	0.951489	-0.025450	0.018927	0.020638	0.999608						
04981														-1.146437	-6.020077	7.589427	0.951615	-0.307048	-0.012246	0.306674	0.951473	-0.025509	0.019484	0.020519	0.999600						
04982														-1.249658	-5.819596	7.686821	0.951573	-0.307164	-0.012590	0.306793	0.951448	-0.025005	0.019659	0.019932	0.999608						
04983														-1.212678	-5.976671	7.670413	0.951514	-0.307349	-0.012584	0.306991	0.951401	-0.024323	0.019448	0.019281	0.999625						
04984														-1.051488	-5.988487	7.651213	0.951422	-0.307643	-0.012324	0.307299	0.951314	-0.023863	0.019066	0.018916	0.999639						
04985														-1.128004	-5.711372	7.849746	0.951354	-0.307853	-0.012308	0.307507	0.951244	-0.023954	0.019083	0.019004	0.999637						
04986														-1.309371	-5.939177	7.636262	0.951273	-0.308119	-0.011953	0.307775	0.951150	-0.024266	0.018846	0.019405	0.999634						
04987														-1.254202	-5.854565	7.772773	0.951170	-0.308479	-0.010754	0.308144	0.951010	-0.025027	0.017947	0.020491	0.999629						
04988														-1.284575	-5.648587	7.924360	0.951021	-0.308989	-0.009246	0.308655	0.950796	-0.026815	0.017077	0.022647	0.999598						
04989														-1.170922	-5.955686	7.816000	0.950803	-0.309703	-0.007535	0.309357	0.950472	-0.030030	0.016462	0.026222	0.999521						
04990														-1.507881	-5.915837	7.898027	0.950582	-0.310441	-0.004630	0.310105	0.950070	-0.034673	0.015163	0.031523	0.999388						
04991														-1.638653	-5.823194	8.055056	0.950382	-0.311083	0.001007	0.310859	0.949565	-0.041149	0.011845	0.039420	0.999153						
04992														-1.527744	-5.475854	8.804082	0.950133	-0.311702	0.009497	0.311757	0.948688	-0.052908	0.007482	0.053230	0.998554						
04993														-1.616903	-5.696208	8.834858	0.949192	-0.314128	0.018919	0.314656	0.946369	-0.073326	0.005130	0.075553	0.997129						
04994														-1.554382	-6.136728	9.086254	0.947440	-0.318610	0.029064	0.319892	0.941953	-0.101944	0.005103	0.105883	0.994365						
04995														-0.858215	-6.155623	9.688733	0.945113	-0.324358	0.039404	0.326595	0.934169	-0.143752	0.009817	0.148731	0.988829						
04996														-1.603423	-5.924726	10.340652	0.942849	-0.329427	0.050130	0.332621	0.921438	-0.200786	0.019953	0.205985	0.978352						
04997														-1.919854	-6.272493	9.779428	0.940176	-0.334437	0.064973	0.339068	0.899940	-0.274118	0.033203	0.279749	0.959499						
04998														-2.118538	-8.274364	9.403275	0.934563	-0.345440	0.085223	0.352051	0.863136	-0.362018	0.051496	0.368331	0.928267						
04999														-5.502074	-10.162561	9.353018	0.926269	-0.357725	0.118572	0.371165	0.811422	-0.451477	0.065292	0.462199	0.884369						
05000														-6.841638	-9.584638	8.574860	0.919228	-0.353215	0.173948	0.390005	0.756272	-0.525309	0.053995	0.550720	0.832942						
