// General information: 
//  MT Manager version: 2022.2.0 
//  XDA version: 2022.2.0 build 7381 rev 124627 built on 2023-07-19
// Device information: 
//  DeviceId: 00B4D4CC
//  ProductCode: MTW2-3A7G6
//  Firmware Version: 4.6.0
//  Hardware Version: 2.0.0
// Device settings: 
//  Filter Profile: human(46.1)
//  Option Flags: Orientation Smoother Disabled, Position/Velocity Smoother Disabled, Continuous Zero Rotation Update Disabled, AHS Disabled, ICC Disabled
// Coordinate system: ENU
PacketCounter	SampleTimeFine	Year	Month	Day	Second	UTC_Nano	UTC_Year	UTC_Month	UTC_Day	UTC_Hour	UTC_Minute	UTC_Second	UTC_Valid	Acc_X	Acc_Y	Acc_Z	Mat[1][1]	Mat[2][1]	Mat[3][1]	Mat[1][2]	Mat[2][2]	Mat[3][2]	Mat[1][3]	Mat[2][3]	Mat[3][3]	Latitude	Longitude	Altitude	Vel_E	Vel_N	Vel_U
04221														1.150027	-4.840036	8.426235	0.999988	0.000656	-0.004852	-0.000668	0.999997	-0.002503	0.004851	0.002506	0.999985						
04222														1.165470	-4.808901	8.449863	0.999988	0.000689	-0.004822	-0.000702	0.999997	-0.002528	0.004820	0.002532	0.999985						
04223														1.176629	-4.825159	8.436442	0.999988	0.000760	-0.004864	-0.000773	0.999996	-0.002698	0.004862	0.002702	0.999985						
04224														1.140639	-4.823140	8.439780	0.999988	0.000781	-0.004850	-0.000794	0.999996	-0.002851	0.004848	0.002855	0.999984						
04225														1.189450	-4.796296	8.437679	0.999987	0.000864	-0.004966	-0.000879	0.999995	-0.003105	0.004963	0.003109	0.999983						
04226														1.133416	-4.847793	8.440572	0.999987	0.000937	-0.005071	-0.000954	0.999994	-0.003341	0.005068	0.003345	0.999982						
04227														1.171284	-4.847896	8.427543	0.999986	0.000980	-0.005130	-0.000998	0.999993	-0.003529	0.005127	0.003534	0.999981						
04228														1.158102	-4.834664	8.450046	0.999986	0.001043	-0.005260	-0.001062	0.999993	-0.003668	0.005256	0.003673	0.999979						
04229														1.165882	-4.809221	8.439104	0.999985	0.001082	-0.005361	-0.001103	0.999992	-0.003876	0.005357	0.003882	0.999978						
04230														1.165873	-4.837495	8.409009	0.999984	0.001125	-0.005488	-0.001148	0.999991	-0.004145	0.005484	0.004151	0.999976						
04231														1.170927	-4.835800	8.473660	0.999983	0.001196	-0.005748	-0.001221	0.999990	-0.004383	0.005743	0.004390	0.999974						
04232														1.112085	-4.888417	8.454774	0.999982	0.001231	-0.005842	-0.001258	0.999988	-0.004659	0.005836	0.004666	0.999972						
04233														1.146059	-4.846906	8.422826	0.999982	0.001238	-0.005793	-0.001265	0.999988	-0.004781	0.005787	0.004788	0.999972						
04234														1.102103	-4.867939	8.406487	0.999983	0.001219	-0.005720	-0.001247	0.999988	-0.004781	0.005714	0.004788	0.999972						
04235														1.158073	-4.848216	8.414073	0.999984	0.001158	-0.005553	-0.001184	0.999988	-0.004710	0.005547	0.004717	0.999973						
04236														1.156028	-4.851848	8.433343	0.999985	0.001148	-0.005438	-0.001173	0.999989	-0.004522	0.005432	0.004528	0.999975						
04237														1.144233	-4.849546	8.431729	0.999985	0.001102	-0.005300	-0.001125	0.999990	-0.004309	0.005295	0.004315	0.999977						
04238														1.163230	-4.840135	8.418013	0.999986	0.001059	-0.005182	-0.001080	0.999991	-0.004093	0.005178	0.004099	0.999978						
04239														1.183042	-4.803329	8.455171	0.999986	0.001106	-0.005174	-0.001128	0.999991	-0.004079	0.005170	0.004085	0.999978						
04240														1.136888	-4.827277	8.448076	0.999986	0.001117	-0.005119	-0.001138	0.999991	-0.004186	0.005115	0.004191	0.999978						
04241														1.154100	-4.852820	8.443219	0.999986	0.001134	-0.005084	-0.001156	0.999990	-0.004289	0.005079	0.004295	0.999978						
04242														1.165133	-4.823649	8.423404	0.999987	0.001132	-0.005066	-0.001155	0.999990	-0.004364	0.005061	0.004370	0.999978						
04243														1.176252	-4.857700	8.446103	0.999987	0.001155	-0.005063	-0.001177	0.999990	-0.004423	0.005058	0.004429	0.999977						
04244														1.138642	-4.841455	8.454044	0.999986	0.001163	-0.005127	-0.001185	0.999990	-0.004405	0.005122	0.004411	0.999977						
04245														1.172986	-4.843524	8.429441	0.999986	0.001169	-0.005112	-0.001192	0.999990	-0.004410	0.005107	0.004416	0.999977						
04246														1.143492	-4.833150	8.437074	0.999987	0.001160	-0.005051	-0.001182	0.999990	-0.004355	0.005046	0.004360	0.999978						
04247														1.176447	-4.837683	8.421782	0.999987	0.001135	-0.005050	-0.001156	0.999990	-0.004292	0.005045	0.004298	0.999978						
04248														1.152232	-4.836349	8.438217	0.999987	0.001105	-0.005026	-0.001126	0.999990	-0.004254	0.005022	0.004259	0.999978						
04249														1.157808	-4.841919	8.417009	0.999986	0.001108	-0.005083	-0.001129	0.999991	-0.004135	0.005078	0.004140	0.999979						
04250														1.151379	-4.819565	8.444138	0.999987	0.001079	-0.005044	-0.001100	0.999991	-0.004052	0.005039	0.004058	0.999979						
04251														1.172342	-4.840131	8.452536	0.999987	0.001090	-0.005067	-0.001111	0.999991	-0.004099	0.005063	0.004104	0.999979						
04252														1.163339	-4.818235	8.426371	0.999986	0.001089	-0.005099	-0.001111	0.999991	-0.004173	0.005095	0.004178	0.999978						
04253														1.151501	-4.833798	8.450309	0.999986	0.001125	-0.005169	-0.001147	0.999990	-0.004314	0.005164	0.004320	0.999977						
04254														1.152389	-4.862970	8.451638	0.999986	0.001149	-0.005213	-0.001172	0.999990	-0.004395	0.005208	0.004401	0.999977						
04255														1.166507	-4.829700	8.444605	0.999985	0.001160	-0.005308	-0.001183	0.999989	-0.004438	0.005302	0.004444	0.999976						
04256														1.132637	-4.851188	8.409905	0.999985	0.001194	-0.005360	-0.001218	0.999989	-0.004450	0.005354	0.004456	0.999976						
04257														1.142748	-4.856907	8.462789	0.999985	0.001209	-0.005337	-0.001232	0.999990	-0.004340	0.005331	0.004347	0.999976						
04258														1.155536	-4.823537	8.434571	0.999985	0.001200	-0.005329	-0.001223	0.999990	-0.004321	0.005323	0.004327	0.999976						
04259														1.159185	-4.848651	8.427333	0.999985	0.001177	-0.005283	-0.001200	0.999990	-0.004307	0.005278	0.004313	0.999977						
04260														1.149068	-4.830501	8.441641	0.999985	0.001211	-0.005261	-0.001233	0.999990	-0.004186	0.005256	0.004192	0.999977						
04261														1.149599	-4.844641	8.447829	0.999986	0.001186	-0.005170	-0.001207	0.999991	-0.004101	0.005165	0.004107	0.999978						
04262														1.162834	-4.826868	8.424957	0.999987	0.001141	-0.005043	-0.001160	0.999992	-0.003950	0.005038	0.003956	0.999979						
04263														1.166428	-4.823778	8.447633	0.999987	0.001122	-0.004957	-0.001141	0.999992	-0.003880	0.004953	0.003886	0.999980						
04264														1.155956	-4.836012	8.441376	0.999988	0.001063	-0.004823	-0.001082	0.999992	-0.003845	0.004818	0.003850	0.999981						
04265														1.167126	-4.837767	8.432491	0.999989	0.001030	-0.004679	-0.001047	0.999992	-0.003771	0.004675	0.003776	0.999982						
04266														1.161610	-4.831495	8.464580	0.999989	0.001029	-0.004552	-0.001046	0.999993	-0.003669	0.004548	0.003674	0.999983						
04267														1.168599	-4.821363	8.437835	0.999989	0.001009	-0.004511	-0.001026	0.999993	-0.003705	0.004507	0.003709	0.999983						
04268														1.169357	-4.820636	8.438145	0.999989	0.001023	-0.004482	-0.001039	0.999992	-0.003748	0.004478	0.003752	0.999983						
04269														1.155709	-4.850618	8.415172	0.999990	0.001018	-0.004421	-0.001034	0.999993	-0.003726	0.004417	0.003731	0.999983						
04270														1.145952	-4.832587	8.429339	0.999990	0.001004	-0.004330	-0.001020	0.999993	-0.003641	0.004326	0.003646	0.999984						
04271														1.170423	-4.833423	8.423663	0.999991	0.001010	-0.004175	-0.001025	0.999993	-0.003550	0.004171	0.003554	0.999985						
04272														1.174361	-4.814669	8.440857	0.999991	0.001000	-0.004128	-0.001015	0.999993	-0.003522	0.004124	0.003526	0.999985						
04273														1.161527	-4.831167	8.443052	0.999991	0.001000	-0.004051	-0.001015	0.999992	-0.003746	0.004047	0.003750	0.999985						
04274														1.172089	-4.819993	8.427265	0.999991	0.000970	-0.004056	-0.000987	0.999991	-0.004140	0.004052	0.004144	0.999983						
04275														1.169470	-4.857545	8.445412	0.999991	0.000942	-0.004122	-0.000961	0.999989	-0.004565	0.004118	0.004569	0.999981						
04276														1.175753	-4.820324	8.437435	0.999991	0.000921	-0.004236	-0.000941	0.999988	-0.004809	0.004232	0.004812	0.999979						
04277														1.162168	-4.866998	8.440666	0.999990	0.000929	-0.004387	-0.000951	0.999987	-0.004950	0.004383	0.004954	0.999978						
04278														1.148250	-4.851121	8.432788	0.999989	0.000919	-0.004496	-0.000941	0.999987	-0.004925	0.004491	0.004929	0.999978						
04279														1.161353	-4.848797	8.436830	0.999989	0.000984	-0.004546	-0.001005	0.999988	-0.004790	0.004541	0.004794	0.999978						
04280														1.178884	-4.826143	8.448380	0.999989	0.001012	-0.004656	-0.001034	0.999988	-0.004707	0.004651	0.004712	0.999978						
04281														1.156415	-4.850951	8.457338	0.999988	0.001071	-0.004786	-0.001093	0.999989	-0.004598	0.004781	0.004603	0.999978						
04282														1.148414	-4.840880	8.428115	0.999988	0.001134	-0.004803	-0.001155	0.999989	-0.004471	0.004798	0.004476	0.999978						
04283														1.182893	-4.843769	8.434928	0.999988	0.001185	-0.004857	-0.001206	0.999990	-0.004361	0.004852	0.004367	0.999979						
04284														1.136518	-4.850449	8.423636	0.999987	0.001236	-0.004900	-0.001257	0.999991	-0.004173	0.004895	0.004179	0.999979						
04285														1.164810	-4.816527	8.451293	0.999987	0.001279	-0.004855	-0.001299	0.999991	-0.004075	0.004850	0.004081	0.999980						
04286														1.155413	-4.825798	8.436115	0.999987	0.001306	-0.004862	-0.001325	0.999991	-0.004025	0.004856	0.004031	0.999980						
04287														1.161417	-4.833837	8.445402	0.999987	0.001349	-0.004852	-0.001368	0.999991	-0.004052	0.004847	0.004059	0.999980						
04288														1.151522	-4.859819	8.435137	0.999987	0.001385	-0.004850	-0.001404	0.999991	-0.004023	0.004844	0.004030	0.999980						
04289														1.152300	-4.842489	8.430552	0.999987	0.001430	-0.004854	-0.001449	0.999991	-0.003996	0.004848	0.004003	0.999980						
04290														1.164529	-4.827058	8.438329	0.999987	0.001444	-0.004868	-0.001463	0.999991	-0.003889	0.004862	0.003896	0.999981						
04291														1.162894	-4.828553	8.448220	0.999987	0.001449	-0.004878	-0.001468	0.999991	-0.003900	0.004873	0.003907	0.999980						
04292														1.163561	-4.811669	8.443384	0.999987	0.001418	-0.004888	-0.001437	0.999991	-0.003933	0.004882	0.003940	0.999980						
04293														1.161930	-4.813916	8.452844	0.999987	0.001397	-0.004902	-0.001416	0.999991	-0.003982	0.004896	0.003989	0.999980						
04294														1.167344	-4.820953	8.430910	0.999987	0.001399	-0.004966	-0.001419	0.999991	-0.004091	0.004960	0.004098	0.999979						
04295														1.178339	-4.839019	8.448491	0.999986	0.001419	-0.005021	-0.001440	0.999990	-0.004161	0.005015	0.004168	0.999979						
04296														1.130415	-4.832587	8.409193	0.999986	0.001418	-0.005024	-0.001439	0.999990	-0.004203	0.005018	0.004210	0.999979						
04297														1.150095	-4.841923	8.452236	0.999986	0.001382	-0.005012	-0.001403	0.999990	-0.004189	0.005006	0.004196	0.999979						
04298														1.150935	-4.824587	8.447631	0.999987	0.001345	-0.005006	-0.001365	0.999990	-0.004141	0.005000	0.004148	0.999979						
04299														1.172012	-4.845187	8.456048	0.999987	0.001365	-0.004999	-0.001386	0.999990	-0.004192	0.004994	0.004199	0.999979						
04300														1.149534	-4.840163	8.431977	0.999987	0.001381	-0.004968	-0.001402	0.999990	-0.004231	0.004963	0.004238	0.999979						
04301														1.173221	-4.843736	8.456712	0.999987	0.001366	-0.004954	-0.001387	0.999990	-0.004241	0.004948	0.004248	0.999979						
04302														1.155060	-4.818117	8.440242	0.999987	0.001374	-0.004942	-0.001394	0.999990	-0.004203	0.004936	0.004210	0.999979						
04303														1.158852	-4.843119	8.433206	0.999987	0.001368	-0.004909	-0.001389	0.999990	-0.004168	0.004903	0.004174	0.999979						
04304														1.158148	-4.828502	8.437771	0.999987	0.001381	-0.004848	-0.001401	0.999991	-0.004107	0.004842	0.004114	0.999980						
04305														1.179603	-4.848695	8.446373	0.999987	0.001388	-0.004824	-0.001407	0.999991	-0.004089	0.004818	0.004096	0.999980						
04306														1.163934	-4.821907	8.451562	0.999988	0.001401	-0.004736	-0.001421	0.999991	-0.004075	0.004730	0.004082	0.999980						
04307														1.164963	-4.820847	8.452025	0.999988	0.001411	-0.004695	-0.001430	0.999991	-0.004084	0.004689	0.004091	0.999981						
04308														1.165155	-4.836258	8.457607	0.999988	0.001424	-0.004713	-0.001444	0.999990	-0.004158	0.004707	0.004165	0.999980						
04309														1.154345	-4.833543	8.445642	0.999988	0.001427	-0.004629	-0.001447	0.999990	-0.004194	0.004623	0.004201	0.999980						
04310														1.157451	-4.829611	8.436943	0.999989	0.001432	-0.004548	-0.001451	0.999990	-0.004159	0.004542	0.004166	0.999981						
04311														1.171980	-4.827321	8.440735	0.999989	0.001383	-0.004488	-0.001401	0.999991	-0.004071	0.004482	0.004077	0.999982						
04312														1.172886	-4.827415	8.472402	0.999989	0.001382	-0.004482	-0.001400	0.999991	-0.004012	0.004476	0.004018	0.999982						
04313														1.173328	-4.824509	8.442155	0.999989	0.001367	-0.004439	-0.001385	0.999991	-0.004030	0.004433	0.004036	0.999982						
04314														1.166436	-4.817585	8.442868	0.999989	0.001353	-0.004430	-0.001371	0.999991	-0.004077	0.004424	0.004083	0.999982						
04315														1.158623	-4.826869	8.448872	0.999989	0.001333	-0.004515	-0.001352	0.999991	-0.004121	0.004510	0.004127	0.999981						
04316														1.158337	-4.842568	8.454369	0.999989	0.001328	-0.004507	-0.001347	0.999990	-0.004217	0.004501	0.004223	0.999981						
04317														1.156757	-4.827532	8.427428	0.999989	0.001322	-0.004553	-0.001342	0.999990	-0.004314	0.004547	0.004320	0.999980						
04318														1.156931	-4.828495	8.458695	0.999989	0.001342	-0.004591	-0.001361	0.999990	-0.004265	0.004585	0.004271	0.999980						
04319														1.158700	-4.824553	8.450184	0.999988	0.001405	-0.004667	-0.001425	0.999990	-0.004296	0.004661	0.004303	0.999980						
04320														1.080832	-4.827590	8.453638	0.999989	0.001385	-0.004527	-0.001405	0.999989	-0.004424	0.004521	0.004430	0.999980						
04321														1.084617	-4.815307	8.456278	0.999993	0.001303	-0.003637	-0.001320	0.999988	-0.004796	0.003631	0.004800	0.999982						
04322														1.048284	-4.826673	8.441246	0.999996	0.001287	-0.002569	-0.001300	0.999985	-0.005265	0.002563	0.005268	0.999983						
04323														1.218341	-4.838710	8.436077	0.999999	0.001153	-0.001015	-0.001159	0.999982	-0.005900	0.001008	0.005902	0.999982						
04324														1.348340	-4.821678	8.410431	0.999999	0.001165	0.000017	-0.001165	0.999978	-0.006593	-0.000025	0.006593	0.999978						
04325														1.266467	-4.813386	8.423707	0.999999	0.001265	0.000497	-0.001261	0.999972	-0.007319	-0.000506	0.007319	0.999973						
04326														1.154432	-4.856413	8.446428	0.999999	0.001399	0.000993	-0.001391	0.999965	-0.008304	-0.001005	0.008303	0.999965						
04327														1.236615	-4.860795	8.416188	0.999998	0.001407	0.001613	-0.001392	0.999956	-0.009259	-0.001626	0.009257	0.999956						
04328														1.363990	-4.842478	8.423563	0.999997	0.001627	0.001773	-0.001609	0.999944	-0.010448	-0.001790	0.010445	0.999944						
04329														1.260942	-4.913388	8.387900	0.999997	0.001922	0.001509	-0.001904	0.999931	-0.011618	-0.001532	0.011615	0.999931						
04330														1.267265	-4.894549	8.394514	0.999997	0.002182	0.000896	-0.002171	0.999919	-0.012559	-0.000923	0.012557	0.999921						
04331														1.318198	-4.954131	8.396826	0.999997	0.002579	-0.000131	-0.002581	0.999907	-0.013418	0.000097	0.013419	0.999910						
04332														0.050885	-5.849181	8.151730	0.999990	0.003511	-0.002780	-0.003551	0.999889	-0.014462	0.002729	0.014472	0.999892						
04333														0.529751	-7.356967	6.985711	0.999977	0.004270	-0.005344	-0.004356	0.999861	-0.016074	0.005274	0.016097	0.999857						
04334														0.903109	-5.581302	8.067097	0.999950	0.004692	-0.008776	-0.004849	0.999826	-0.018000	0.008690	0.018042	0.999799						
04335														1.733046	-4.016684	8.819251	0.999917	0.005056	-0.011867	-0.005287	0.999795	-0.019529	0.011766	0.019590	0.999739						
04336														1.179944	-4.635995	8.482563	0.999875	0.005575	-0.014788	-0.005880	0.999770	-0.020635	0.014669	0.020720	0.999678						
04337														0.575658	-5.594743	8.038572	0.999829	0.005983	-0.017508	-0.006361	0.999747	-0.021590	0.017374	0.021698	0.999614						
04338														0.614278	-5.700215	8.046189	0.999781	0.005920	-0.020076	-0.006404	0.999689	-0.024114	0.019927	0.024238	0.999508						
04339														-0.021224	-5.437504	8.354387	0.999756	0.005437	-0.021423	-0.006058	0.999559	-0.029056	0.021255	0.029179	0.999348						
04340														0.015910	-5.211916	8.549317	0.999806	0.003893	-0.019305	-0.004612	0.999292	-0.037342	0.019146	0.037424	0.999116						
04341														0.784367	-5.651183	8.093565	0.999864	0.002234	-0.016354	-0.003023	0.998826	-0.048352	0.016227	0.048394	0.998696						
04342														1.116652	-5.621833	7.960289	0.999891	0.000749	-0.014774	-0.001632	0.998206	-0.059855	0.014703	0.059872	0.998098						
04343														1.485309	-4.989857	8.263606	0.999884	-0.001512	-0.015186	0.000442	0.997532	-0.070212	0.015255	0.070197	0.997416						
04344														1.217460	-5.383775	7.981246	0.999859	-0.003649	-0.016395	0.002343	0.996876	-0.078942	0.016632	0.078892	0.996744						
04345														1.051112	-6.013266	7.644140	0.999828	-0.004444	-0.017980	0.002863	0.996198	-0.087067	0.018298	0.087000	0.996040						
04346														1.134240	-5.622814	7.978963	0.999797	-0.003743	-0.019801	0.001838	0.995442	-0.095356	0.020067	0.095300	0.995246						
04347														1.473313	-5.083869	8.476548	0.999764	-0.002216	-0.021609	-0.000067	0.994463	-0.105087	0.021722	0.105063	0.994228						
04348														1.166357	-5.481802	8.474588	0.999698	-0.000631	-0.024586	-0.002262	0.993075	-0.117462	0.024490	0.117482	0.992773						
04349														0.926761	-5.672476	8.515264	0.999600	0.000303	-0.028288	-0.004095	0.990963	-0.134070	0.027992	0.134132	0.990568						
04350														0.972647	-5.172132	9.152951	0.999440	0.000291	-0.033447	-0.005549	0.987546	-0.157235	0.032985	0.157332	0.986995						
04351														1.443619	-5.200592	9.238595	0.999219	-0.000573	-0.039502	-0.006889	0.982046	-0.188517	0.038901	0.188642	0.981275						
04352														1.842500	-6.186146	8.577544	0.998761	-0.001261	-0.049752	-0.010183	0.973352	-0.229091	0.048715	0.229314	0.972133						
04353														0.712007	-6.942190	8.533535	0.997976	0.000460	-0.063583	-0.018368	0.959428	-0.281355	0.060874	0.281953	0.957495						
04354														1.543672	-6.315332	8.855579	0.996563	0.003213	-0.082770	-0.032003	0.936590	-0.348963	0.076401	0.350413	0.933474						
04355														0.972257	-7.471471	8.814770	0.994321	0.005121	-0.106298	-0.050382	0.902469	-0.427799	0.093740	0.430725	0.897602						
04356														0.064834	-8.521613	7.679882	0.992021	0.009782	-0.125695	-0.072808	0.858379	-0.507823	0.102926	0.512923	0.852242						
04357														2.524884	-9.619272	4.927704	0.988773	0.010693	-0.149044	-0.095443	0.812654	-0.574878	0.114974	0.582649	0.804551						
04358														2.930706	-8.817146	2.385992	0.982637	-0.004527	-0.185483	-0.114008	0.773971	-0.622873	0.146378	0.633205	0.760017						
04359														-1.013983	-8.507806	8.282952	0.977696	-0.021133	-0.208961	-0.120480	0.758518	-0.640418	0.172035	0.651309	0.739054						
04360														8.354251	-2.123468	10.538492	0.984940	-0.013581	-0.172360	-0.092920	0.799115	-0.593954	0.145802	0.601025	0.785819						
04361														4.980478	-1.082699	7.757339	0.991208	-0.018228	-0.131048	-0.052937	0.853095	-0.519064	0.121258	0.521438	0.844630						
04362														3.474219	-2.119613	6.754029	0.996554	-0.024066	-0.079383	-0.011127	0.909558	-0.415429	0.082201	0.414880	0.906155						
04363														2.608308	-3.074281	6.200266	0.998859	-0.035923	-0.031477	0.024776	0.953131	-0.301543	0.040834	0.300419	0.952933						
04364														2.306800	-6.779962	7.000347	0.998855	-0.047186	0.007867	0.047821	0.980524	-0.190491	0.001274	0.190649	0.981657						
04365														1.081264	-9.642309	6.913425	0.997364	-0.057369	0.044424	0.061186	0.994065	-0.089950	-0.039000	0.092431	0.994955						
04366														-1.620763	-12.951197	6.860165	0.993380	-0.065910	0.094081	0.066968	0.997722	-0.008126	-0.093331	0.014373	0.995531						
04367														-1.869090	-13.850872	3.881668	0.987283	-0.077084	0.139031	0.070734	0.996238	0.050056	-0.142367	-0.039585	0.989022						
04368														-2.685563	-14.614133	2.326932	0.982888	-0.081863	0.165012	0.069586	0.994454	0.078866	-0.170553	-0.066034	0.983133						
04369														3.532789	-12.868054	-1.427962	0.985494	-0.083696	0.147639	0.073262	0.994507	0.074752	-0.153085	-0.062851	0.986212						
04370														-3.836969	-9.814638	11.318896	0.992193	-0.088805	0.087558	0.084899	0.995263	0.047370	-0.091350	-0.039566	0.995033						
04371														-8.778956	-6.019369	14.131060	0.995329	-0.083569	0.048342	0.082314	0.996230	0.027399	-0.050450	-0.023292	0.998455						
04372														4.504057	-3.142270	9.544237	0.996114	-0.081062	0.034443	0.080855	0.996699	0.007376	-0.034927	-0.004563	0.999379						
04373														0.892755	-9.712882	8.517033	0.996697	-0.078841	0.019489	0.078991	0.996850	-0.007054	-0.018871	0.008570	0.999785						
04374														0.679118	-6.724281	7.881625	0.996945	-0.077063	0.012745	0.077196	0.996962	-0.010333	-0.011910	0.011285	0.999865						
04375														1.734852	-4.966141	8.635121	0.997082	-0.076009	0.007139	0.076083	0.997044	-0.010728	-0.006303	0.011240	0.999917						
04376														0.988899	-4.979547	8.688761	0.997132	-0.075648	0.002467	0.075671	0.997074	-0.010799	-0.001643	0.010955	0.999939						
04377														0.674763	-5.452073	8.371540	0.997124	-0.075784	-0.000368	0.075775	0.997063	-0.011101	0.001208	0.011042	0.999938						
04378														0.753263	-5.101249	8.451816	0.997091	-0.076206	-0.001318	0.076185	0.997018	-0.012259	0.002248	0.012123	0.999924						
04379														1.292571	-4.553776	8.751746	0.997055	-0.076677	-0.001168	0.076652	0.996954	-0.014372	0.002266	0.014241	0.999896						
04380														1.440195	-4.716890	8.521547	0.997050	-0.076759	-0.000584	0.076738	0.996912	-0.016691	0.001863	0.016597	0.999861						
04381														1.238669	-5.208050	8.318156	0.997064	-0.076564	-0.000840	0.076533	0.996879	-0.019363	0.002320	0.019242	0.999812						
04382														1.392963	-4.956211	8.385620	0.997086	-0.076275	-0.001606	0.076221	0.996841	-0.022329	0.003304	0.022141	0.999749						
04383														1.517966	-4.723187	8.464831	0.997130	-0.075629	-0.003337	0.075520	0.996818	-0.025495	0.005255	0.025170	0.999669						
04384														1.366969	-4.997512	8.355121	0.997182	-0.074766	-0.006179	0.074562	0.996809	-0.028490	0.008290	0.027949	0.999575						
04385														0.967056	-5.144603	8.383886	0.997226	-0.073849	-0.009285	0.073522	0.996790	-0.031676	0.011594	0.030906	0.999455						
04386														0.321073	-5.389499	8.313522	0.997270	-0.073024	-0.010971	0.072593	0.996727	-0.035579	0.013533	0.034685	0.999307						
04387														0.944830	-5.158025	8.283790	0.997280	-0.072962	-0.010449	0.072506	0.996610	-0.038881	0.013250	0.038018	0.999189						
04388														1.352321	-5.094655	8.107716	0.997315	-0.072525	-0.010154	0.072051	0.996554	-0.041102	0.013100	0.040260	0.999103						
04389														1.021248	-5.387877	8.086342	0.997370	-0.071742	-0.010333	0.071242	0.996551	-0.042560	0.013350	0.041712	0.999040						
04390														1.013226	-5.259821	8.130445	0.997431	-0.070890	-0.010246	0.070380	0.996563	-0.043702	0.013309	0.042868	0.998992						
04391														0.787623	-5.528075	8.016010	0.997505	-0.069898	-0.009903	0.069394	0.996601	-0.044397	0.012972	0.043599	0.998965						
04392														0.598949	-6.572973	7.253807	0.997579	-0.068839	-0.009821	0.068346	0.996695	-0.043915	0.012812	0.043137	0.998987						
04393														0.525044	-6.391729	7.567549	0.997647	-0.067663	-0.011026	0.067136	0.996831	-0.042679	0.013878	0.041839	0.999028						
04394														0.488323	-5.952331	7.540691	0.997701	-0.067008	-0.010091	0.066562	0.997000	-0.039504	0.012708	0.038741	0.999168						
04395														2.094924	-4.455223	8.750217	0.997726	-0.066137	-0.013017	0.065588	0.997091	-0.038818	0.015546	0.037876	0.999162						
04396														2.133254	-3.802286	9.512800	0.997701	-0.064990	-0.019223	0.064100	0.996984	-0.043752	0.022008	0.042420	0.998857						
04397														2.312383	-4.061999	9.994613	0.997626	-0.062548	-0.028801	0.060795	0.996453	-0.058189	0.032338	0.056300	0.997890						
04398														1.858451	-4.937931	10.160995	0.997604	-0.056781	-0.039516	0.053140	0.994723	-0.087764	0.044291	0.085454	0.995357						
04399														1.437304	-4.526725	11.626506	0.997420	-0.048448	-0.052980	0.040803	0.989742	-0.136914	0.059069	0.134399	0.989165						
04400														1.117433	-3.565404	12.244750	0.996597	-0.043798	-0.069824	0.028564	0.978162	-0.205870	0.077316	0.203175	0.976085						
04401														2.619484	-5.863455	11.167036	0.994774	-0.041448	-0.093310	0.012795	0.957298	-0.288818	0.101296	0.286115	0.952826						
04402														3.773868	-8.155857	9.498232	0.992109	-0.036683	-0.119892	-0.010775	0.927759	-0.373024	0.124914	0.371373	0.920043						
04403														4.081257	-6.824800	12.106019	0.983935	-0.062540	-0.167216	-0.016430	0.900940	-0.433633	0.177771	0.429414	0.885438						
04404														1.404262	-0.985264	12.190004	0.982390	-0.065379	-0.175029	-0.020157	0.894229	-0.447156	0.185751	0.442810	0.877164						
04405														3.074218	0.108524	9.914331	0.980875	-0.066753	-0.182836	-0.021830	0.895695	-0.444132	0.193412	0.439629	0.877108						
04406														2.501859	1.139659	8.459435	0.981680	-0.059893	-0.180878	-0.023170	0.904742	-0.425329	0.189122	0.421728	0.886780						
04407														1.952626	-0.297523	8.479328	0.983692	-0.050588	-0.172598	-0.022251	0.918031	-0.395885	0.178478	0.393269	0.901934						
04408														1.969190	-2.096701	8.559735	0.986454	-0.041230	-0.158770	-0.018104	0.934621	-0.355184	0.163034	0.353247	0.921215						
04409														1.476511	-3.947787	8.801018	0.989571	-0.036288	-0.139398	-0.008328	0.951717	-0.306865	0.143803	0.304825	0.941489						
04410														1.294492	-5.416061	9.232137	0.992992	-0.036002	-0.112569	0.006566	0.967807	-0.251608	0.118003	0.249106	0.961260						
04411														1.339612	-6.453294	9.189776	0.995837	-0.037162	-0.083238	0.020692	0.981445	-0.190623	0.088777	0.188107	0.978128						
04412														1.687385	-7.869660	8.960792	0.997800	-0.038488	-0.053986	0.031456	0.991588	-0.125554	0.058364	0.123580	0.990617						
04413														2.028425	-8.930985	8.123396	0.998815	-0.043268	-0.022286	0.041816	0.997203	-0.061951	0.024905	0.060945	0.997830						
04414														2.104168	-10.617720	7.188602	0.998345	-0.056874	0.008571	0.056911	0.998371	-0.004163	-0.008320	0.004644	0.999955						
04415														0.366484	-12.270312	5.729600	0.996349	-0.076432	0.038047	0.074766	0.996255	0.043437	-0.041224	-0.040434	0.998331						
04416														-1.656690	-14.051089	4.566950	0.993163	-0.094103	0.069079	0.088571	0.992916	0.079207	-0.076043	-0.072547	0.994462						
04417														-2.871046	-13.472386	3.309724	0.990585	-0.099595	0.093928	0.090026	0.990790	0.101144	-0.103137	-0.091736	0.990428						
04418														-2.253283	-12.461835	3.244072	0.989871	-0.088806	0.110766	0.076636	0.991009	0.109668	-0.119509	-0.100069	0.987777						
04419														-1.305168	-10.396767	3.151711	0.990156	-0.066827	0.122988	0.053425	0.992582	0.109211	-0.129373	-0.101565	0.986381						
04420														-0.066407	-8.739170	3.711918	0.989947	-0.042298	0.134968	0.028726	0.994475	0.100966	-0.138493	-0.096074	0.985692						
04421														1.938420	-6.643118	4.035088	0.988847	-0.023412	0.147083	0.010387	0.996003	0.088710	-0.148572	-0.086193	0.985138						
04422														2.155089	-0.867055	4.091023	0.993637	-0.039567	0.105449	0.032956	0.997424	0.063718	-0.107698	-0.059838	0.992381						
04423														-7.155860	-14.492309	19.081671	0.997940	-0.046184	0.044536	0.044824	0.998512	0.031067	-0.045904	-0.029006	0.998525						
04424														2.303380	-1.096706	11.572648	0.998411	-0.045212	0.033650	0.044929	0.998949	0.009103	-0.034027	-0.007577	0.999392						
04425														0.977530	-7.818171	9.226755	0.998704	-0.045743	0.022293	0.045944	0.998907	-0.008585	-0.021876	0.009598	0.999715						
04426														0.244723	-6.425029	8.083780	0.998866	-0.044092	0.017959	0.044407	0.998860	-0.017539	-0.017166	0.018317	0.999685						
04427														1.406934	-6.378985	7.834890	0.998931	-0.043548	0.015495	0.043918	0.998737	-0.024411	-0.014413	0.025065	0.999582						
04428														1.371624	-5.325045	8.323319	0.998990	-0.043082	0.012765	0.043438	0.998633	-0.029069	-0.011495	0.029594	0.999496						
04429														1.763736	-4.983867	8.533690	0.999015	-0.043158	0.010291	0.043470	0.998532	-0.032326	-0.008880	0.032741	0.999424						
04430														1.176088	-5.331385	8.429674	0.999032	-0.043288	0.007866	0.043540	0.998426	-0.035360	-0.006323	0.035668	0.999344						
04431														1.005861	-5.414722	8.341460	0.999022	-0.043646	0.007014	0.043885	0.998288	-0.038662	-0.005314	0.038932	0.999228						
04432														1.239890	-5.277908	8.306811	0.999013	-0.043861	0.007047	0.044117	0.998163	-0.041536	-0.005212	0.041806	0.999112						
04433														1.307324	-5.392808	8.156689	0.999002	-0.044076	0.007161	0.044346	0.998079	-0.043264	-0.005240	0.043538	0.999038						
04434														1.196965	-5.452939	8.108325	0.999002	-0.044059	0.007387	0.044342	0.998048	-0.043968	-0.005435	0.044252	0.999006						
04435														1.254276	-5.173691	8.199925	0.999003	-0.043965	0.007753	0.044266	0.998036	-0.044330	-0.005789	0.044629	0.998987						
04436														1.501622	-5.024106	8.241512	0.999012	-0.043755	0.007722	0.044057	0.998035	-0.044561	-0.005757	0.044857	0.998977						
04437														1.261216	-5.040120	8.260345	0.999035	-0.043304	0.007346	0.043592	0.998038	-0.044954	-0.005385	0.045231	0.998962						
04438														1.088790	-5.062597	8.406103	0.999046	-0.043055	0.007304	0.043350	0.997974	-0.046564	-0.005285	0.046837	0.998889						
04439														1.254437	-5.069288	8.243287	0.999046	-0.043062	0.007216	0.043364	0.997863	-0.048868	-0.005096	0.049134	0.998779						
04440														1.476408	-5.146344	8.076495	0.999033	-0.043434	0.006793	0.043724	0.997749	-0.050838	-0.004569	0.051086	0.998684						
04441														1.690867	-5.204235	7.984301	0.999051	-0.043312	0.004527	0.043488	0.997711	-0.051792	-0.002274	0.051940	0.998648						
04442														1.190761	-5.321766	8.088001	0.999088	-0.042693	0.000901	0.042681	0.997698	-0.052703	0.001352	0.052693	0.998610						
04443														1.181801	-5.216796	8.305569	0.999095	-0.042455	-0.002757	0.042244	0.997634	-0.054236	0.005053	0.054071	0.998524						
04444														1.123542	-5.182304	8.336450	0.999077	-0.042432	-0.006755	0.041985	0.997529	-0.056339	0.009129	0.056003	0.998389						
04445														1.022203	-5.292218	8.332920	0.999047	-0.042395	-0.010337	0.041709	0.997366	-0.059337	0.012825	0.058849	0.998184						
04446														0.965612	-5.236533	8.451758	0.999028	-0.041885	-0.013725	0.040920	0.997087	-0.064370	0.016381	0.063746	0.997832						
04447														1.094352	-5.053818	8.529718	0.999020	-0.041082	-0.016462	0.039799	0.996621	-0.071854	0.019358	0.071128	0.997279						
04448														1.297668	-5.207393	8.435521	0.999029	-0.039695	-0.019138	0.038017	0.995969	-0.081247	0.022286	0.080441	0.996510						
04449														1.243512	-5.516338	8.482814	0.999021	-0.038000	-0.022669	0.035748	0.995063	-0.092584	0.026075	0.091683	0.995447						
04450														1.904669	-4.967899	9.739637	0.998865	-0.038000	-0.028710	0.034626	0.993322	-0.110056	0.032700	0.108937	0.993511						
04451														3.057016	-3.536470	11.643604	0.998630	-0.035498	-0.038445	0.029536	0.988863	-0.145866	0.043194	0.144531	0.988557						
04452														2.147028	-3.540939	12.512388	0.998103	-0.028487	-0.054584	0.016582	0.978144	-0.207267	0.059296	0.205969	0.976760						
04453														2.867977	-6.004731	11.519101	0.996412	-0.022669	-0.081547	-0.001894	0.957254	-0.289242	0.084618	0.288359	0.953776						
04454														1.205161	-7.879102	10.448606	0.994360	-0.007557	-0.105785	-0.033411	0.924346	-0.380090	0.100654	0.381481	0.918880						
04455														9.168967	-7.474773	10.431986	0.988416	-0.018180	-0.150678	-0.053304	0.887969	-0.456805	0.142102	0.459545	0.876713						
04456														-0.725248	-5.284724	14.794304	0.983111	-0.034265	-0.179775	-0.058160	0.872896	-0.484427	0.173524	0.486701	0.856161						
04457														5.123266	0.476239	9.147830	0.981089	-0.035943	-0.190192	-0.063309	0.868970	-0.490799	0.182912	0.493558	0.850261						
04458														2.106618	0.437223	8.398764	0.981318	-0.029318	-0.190145	-0.066308	0.876229	-0.477311	0.180605	0.481002	0.857916						
04459														1.920140	-0.310627	7.474417	0.982576	-0.014561	-0.185292	-0.071628	0.890258	-0.449789	0.171507	0.455224	0.873703						
04460														1.834975	-1.815542	7.761903	0.984971	0.001641	-0.172712	-0.073246	0.909556	-0.409076	0.156420	0.415578	0.896006						
04461														1.587626	-3.197999	7.790186	0.988688	0.012007	-0.149503	-0.065811	0.930436	-0.360495	0.134774	0.366256	0.920702						
04462														0.936408	-4.447423	8.363247	0.992841	0.015791	-0.118394	-0.051541	0.950828	-0.305399	0.107750	0.309315	0.944835						
04463														1.029998	-6.234260	9.034703	0.996342	0.016932	-0.083764	-0.036854	0.969477	-0.242395	0.077103	0.244595	0.966555						
04464														0.459469	-7.361231	9.250476	0.998974	0.009892	-0.044195	-0.017381	0.984866	-0.172442	0.041820	0.173033	0.984028						
04465														0.165169	-8.756482	8.932798	0.999955	-0.008004	-0.005008	0.007467	0.995025	-0.099340	0.005779	0.099299	0.995041						
04466														0.240060	-10.018810	8.165815	0.999061	-0.034569	0.026129	0.035287	0.998998	-0.027528	-0.025152	0.028424	0.999279						
04467														-0.199156	-10.927413	7.060126	0.996705	-0.064019	0.049809	0.062151	0.997336	0.038184	-0.052121	-0.034963	0.998029						
04468														-0.815490	-11.952212	5.809814	0.993846	-0.086887	0.068711	0.080431	0.992532	0.091714	-0.076166	-0.085623	0.993412						
04469														-1.852326	-13.006391	4.977392	0.991507	-0.096311	0.087398	0.084401	0.987782	0.131005	-0.098947	-0.122516	0.987522						
04470														-1.702760	-13.656589	3.769871	0.990184	-0.094819	0.102692	0.078248	0.984835	0.154843	-0.115817	-0.145287	0.982587						
04471														-1.666447	-13.582694	2.725809	0.989680	-0.086816	0.114000	0.067706	0.984476	0.161936	-0.126288	-0.152546	0.980194						
04472														-0.777831	-12.698877	2.276393	0.990270	-0.073146	0.118384	0.054798	0.986948	0.151427	-0.127915	-0.143466	0.981354						
04473														1.194113	-11.344372	2.775680	0.991417	-0.060625	0.115830	0.045709	0.990804	0.127352	-0.122486	-0.120964	0.985071						
04474														1.714995	-5.646776	7.007475	0.993474	-0.060397	0.096760	0.051050	0.994040	0.096323	-0.102001	-0.090754	0.990636						
04475														2.550882	4.485413	12.009190	0.994932	-0.066721	0.075219	0.061603	0.995752	0.068426	-0.079465	-0.063446	0.994817						
04476														1.331644	-11.982506	14.857379	0.997194	-0.064541	0.037930	0.063125	0.997305	0.037395	-0.040241	-0.034896	0.998580						
04477														0.848523	-1.724352	9.122536	0.997683	-0.064997	0.020078	0.064621	0.997732	0.018831	-0.021256	-0.017489	0.999621						
04478														-0.847961	-9.562688	8.937393	0.997929	-0.063720	0.008787	0.063710	0.997968	0.001381	-0.008857	-0.000818	0.999960						
04479														1.627230	-5.010377	8.244964	0.998027	-0.062599	0.004884	0.062617	0.998031	-0.003700	-0.004643	0.003998	0.999981						
04480														1.525353	-4.900750	8.861908	0.998082	-0.061892	0.000914	0.061897	0.998052	-0.007840	-0.000427	0.007882	0.999969						
04481														0.566612	-5.629128	8.351301	0.998071	-0.062077	-0.000616	0.062067	0.998014	-0.010716	0.001280	0.010657	0.999942						
04482														1.127690	-5.841272	8.020645	0.998048	-0.062434	-0.001599	0.062409	0.997976	-0.012194	0.002358	0.012070	0.999924						
04483														0.981345	-5.022972	8.579625	0.998019	-0.062890	-0.001700	0.062863	0.997939	-0.012920	0.002509	0.012787	0.999915						
04484														1.427778	-4.565989	8.755663	0.997990	-0.063371	-0.001009	0.063351	0.997896	-0.013818	0.001883	0.013726	0.999904						
04485														1.487919	-4.997923	8.418854	0.997969	-0.063700	-0.000655	0.063684	0.997866	-0.014445	0.001574	0.014374	0.999895						
04486														1.127132	-5.347719	8.251663	0.997963	-0.063787	-0.000948	0.063766	0.997853	-0.014924	0.001898	0.014833	0.999888						
04487														1.291318	-5.060048	8.364773	0.997955	-0.063905	-0.001370	0.063876	0.997842	-0.015227	0.002340	0.015108	0.999883						
04488														1.268464	-4.865671	8.469931	0.997961	-0.063793	-0.001923	0.063757	0.997853	-0.014951	0.002872	0.014798	0.999886						
04489														1.068587	-4.873267	8.488531	0.997968	-0.063684	-0.001990	0.063648	0.997864	-0.014694	0.002921	0.014538	0.999890						
04490														1.089253	-4.893656	8.433409	0.997988	-0.063380	-0.001589	0.063351	0.997885	-0.014568	0.002509	0.014438	0.999893						
04491														1.226128	-4.890465	8.399525	0.998011	-0.063032	-0.000987	0.063010	0.997903	-0.014776	0.001916	0.014684	0.999890						
04492														1.199725	-4.833368	8.358320	0.998036	-0.062640	-0.000332	0.062629	0.997928	-0.014759	0.001256	0.014709	0.999891						
04493														1.106984	-4.924779	8.378865	0.998050	-0.062413	0.000422	0.062413	0.997943	-0.014610	0.000491	0.014607	0.999893						
04494														1.119475	-5.065595	8.247790	0.998058	-0.062275	0.001129	0.062285	0.997955	-0.014385	-0.000231	0.014427	0.999896						
04495														1.215876	-5.067962	8.266864	0.998062	-0.062216	0.001553	0.062231	0.997966	-0.013844	-0.000688	0.013914	0.999903						
04496														1.238578	-4.929195	8.340907	0.998065	-0.062166	0.001423	0.062179	0.997981	-0.012926	-0.000616	0.012990	0.999915						
04497														1.297357	-4.716521	8.469710	0.998069	-0.062107	0.001051	0.062115	0.997993	-0.012338	-0.000283	0.012379	0.999923						
04498														1.099677	-4.793449	8.549824	0.998080	-0.061925	0.001036	0.061933	0.998003	-0.012434	-0.000264	0.012474	0.999922						
04499														1.172475	-5.100534	8.334780	0.998093	-0.061714	0.001313	0.061726	0.998005	-0.013235	-0.000493	0.013290	0.999912						
04500														1.305445	-4.971684	8.446306	0.998102	-0.061563	0.001401	0.061577	0.998002	-0.014186	-0.000524	0.014246	0.999898						
04501														2.192232	-4.172621	8.676906	0.998126	-0.061189	-0.000821	0.061167	0.997997	-0.016169	0.001809	0.016088	0.999869						
04502														2.742753	-4.004842	9.197386	0.998153	-0.060223	-0.007976	0.060031	0.997945	-0.022395	0.009309	0.021874	0.999717						
04503														2.459972	-3.857064	9.748802	0.998036	-0.058350	-0.022785	0.057484	0.997661	-0.036978	0.024889	0.035596	0.999056						
04504														2.122854	-4.146655	10.643668	0.997997	-0.051550	-0.036673	0.048971	0.996478	-0.068068	0.040053	0.066135	0.997006						
04505														2.756154	-4.048549	12.527867	0.997518	-0.039323	-0.058410	0.031909	0.991914	-0.122838	0.062768	0.120669	0.990706						
04506														4.128209	-4.615094	11.980771	0.995346	-0.021843	-0.093854	0.002968	0.980457	-0.196710	0.096317	0.195516	0.975959						
04507														4.055377	-7.178586	11.407838	0.990825	0.009448	-0.134817	-0.047591	0.958048	-0.282627	0.126491	0.286450	0.949709						
04508														8.948497	-7.465020	11.943494	0.979380	0.019257	-0.201105	-0.091625	0.929520	-0.357207	0.180053	0.368267	0.912118						
04509														0.961463	-2.298830	14.010973	0.976373	0.034158	-0.213377	-0.117420	0.912798	-0.391169	0.181409	0.406981	0.895241						
04510														5.349160	1.765091	9.950417	0.978317	0.047244	-0.201655	-0.128218	0.902785	-0.410536	0.162655	0.427490	0.889267						
04511														1.111790	2.394213	9.859907	0.980678	0.063988	-0.184866	-0.135323	0.904315	-0.404849	0.141272	0.422044	0.895501						
04512														0.057062	1.646166	9.110972	0.983309	0.080059	-0.163381	-0.137640	0.914595	-0.380226	0.118987	0.396368	0.910349						
04513														-0.534503	0.105071	8.983671	0.986405	0.092501	-0.135825	-0.134063	0.930970	-0.339590	0.095037	0.353183	0.930715						
04514														0.021385	-2.282877	9.166751	0.989047	0.099700	-0.108838	-0.127233	0.949660	-0.286282	0.074817	0.296994	0.951944						
04515														0.868004	-4.294174	9.386945	0.991541	0.100611	-0.081996	-0.116702	0.967581	-0.223983	0.056802	0.231657	0.971138						
04516														2.357562	-7.159870	9.401578	0.994417	0.091986	-0.051704	-0.099068	0.982576	-0.157257	0.036338	0.161501	0.986203						
04517														1.991579	-9.070797	8.268379	0.997803	0.064877	-0.013457	-0.065828	0.993766	-0.089975	0.007536	0.090663	0.995853						
04518														-0.032010	-10.006784	7.711682	0.999245	0.025747	0.029092	-0.024892	0.999259	-0.029369	-0.029826	0.028623	0.999145						
04519														-1.598909	-11.092660	8.061837	0.997488	-0.009916	0.070145	0.008209	0.999664	0.024593	-0.070365	-0.023956	0.997234						
04520														-1.415686	-10.678731	7.099398	0.994438	-0.033251	0.099938	0.025956	0.996963	0.073428	-0.102076	-0.070426	0.992281						
04521														-0.249771	-10.958790	5.324561	0.992154	-0.043453	0.117225	0.030283	0.993261	0.111873	-0.121296	-0.107445	0.986784						
04522														0.537176	-11.139951	3.177753	0.990579	-0.047729	0.128354	0.030199	0.990357	0.135210	-0.133569	-0.130060	0.982468						
04523														0.728104	-11.979496	2.465221	0.988106	-0.053867	0.144033	0.033115	0.989201	0.142777	-0.150169	-0.136309	0.979219						
04524														-0.914429	-15.295793	-1.227772	0.988537	-0.069136	0.134218	0.053064	0.991375	0.119834	-0.141345	-0.111339	0.983679						
04525														-2.051654	-15.219867	3.503671	0.988440	-0.090614	0.121551	0.081762	0.993754	0.075944	-0.127674	-0.065128	0.989676						
04526														3.651821	-4.512056	11.948885	0.992111	-0.100325	0.075174	0.097130	0.994253	0.045023	-0.079259	-0.037366	0.996153						
04527														-2.713300	-6.074914	13.340965	0.994236	-0.097782	0.043972	0.096711	0.994977	0.025861	-0.046280	-0.021459	0.998698						
04528														3.059012	-6.014422	9.398212	0.995010	-0.096316	0.026061	0.096271	0.995351	0.002997	-0.026228	-0.000474	0.999656						
04529														-1.632242	-8.010336	8.165754	0.995299	-0.095838	0.013983	0.095890	0.995387	-0.003070	-0.013625	0.004396	0.999898						
04530														1.297423	-5.887272	8.173010	0.995343	-0.095895	0.009831	0.095945	0.995375	-0.004773	-0.009328	0.005694	0.999940						
04531														1.441872	-4.770387	8.947786	0.995338	-0.096180	0.007163	0.096232	0.995332	-0.007299	-0.006428	0.007955	0.999948						
04532														1.086918	-4.851903	8.781653	0.995310	-0.096522	0.006489	0.096583	0.995276	-0.009848	-0.005508	0.010428	0.999930						
04533														0.989842	-5.337887	8.460559	0.995247	-0.097108	0.007345	0.097196	0.995183	-0.012764	-0.006070	0.013418	0.999892						
04534														1.310029	-5.236954	8.333015	0.995173	-0.097733	0.008835	0.097859	0.995084	-0.015193	-0.007307	0.015985	0.999846						
04535														1.506693	-4.894555	8.496176	0.995117	-0.098196	0.009957	0.098361	0.994995	-0.017625	-0.008176	0.018518	0.999795						
04536														1.623744	-4.851570	8.475866	0.995076	-0.098540	0.010649	0.098737	0.994915	-0.019881	-0.008636	0.020834	0.999746						
04537														1.385696	-5.138615	8.285756	0.995050	-0.098793	0.010708	0.099007	0.994848	-0.021789	-0.008500	0.022742	0.999705						
04538														1.232623	-5.068279	8.327263	0.995049	-0.098821	0.010611	0.099049	0.994799	-0.023755	-0.008208	0.024688	0.999662						
04539														1.359344	-4.971180	8.333374	0.995083	-0.098508	0.010252	0.098742	0.994784	-0.025577	-0.007679	0.026463	0.999620						
04540														1.329346	-5.023706	8.264030	0.995122	-0.098171	0.009708	0.098401	0.994781	-0.026980	-0.007009	0.027804	0.999589						
04541														1.078380	-5.007959	8.320473	0.995143	-0.097977	0.009507	0.098211	0.994759	-0.028446	-0.006671	0.029241	0.999550						
04542														1.234920	-4.778226	8.413130	0.995157	-0.097778	0.010077	0.098041	0.994726	-0.030119	-0.007079	0.030961	0.999496						
04543														1.227228	-5.029680	8.271682	0.995192	-0.097343	0.010785	0.097641	0.994710	-0.031903	-0.007623	0.032802	0.999433						
04544														1.251268	-5.426627	8.029822	0.995239	-0.096815	0.011264	0.097142	0.994711	-0.033382	-0.007973	0.034317	0.999379						
04545														1.354455	-5.297767	8.127702	0.995286	-0.096310	0.011421	0.096648	0.994736	-0.034046	-0.008082	0.034989	0.999355						
04546														1.366572	-5.031367	8.302357	0.995354	-0.095637	0.011151	0.095968	0.994793	-0.034320	-0.007811	0.035231	0.999349						
04547														1.273523	-5.100883	8.279001	0.995420	-0.094999	0.010728	0.095317	0.994850	-0.034481	-0.007397	0.035346	0.999348						
04548														1.319852	-5.004545	8.293879	0.995475	-0.094491	0.010047	0.094788	0.994881	-0.035024	-0.006686	0.035818	0.999336						
04549														1.502337	-4.952219	8.374654	0.995562	-0.093691	0.008820	0.093954	0.994899	-0.036732	-0.005334	0.037397	0.999286						
04550														1.530839	-4.888647	8.469950	0.995664	-0.092777	0.006772	0.092973	0.994880	-0.039632	-0.003061	0.040090	0.999191						
04551														1.509399	-4.917203	8.543386	0.995768	-0.091838	0.003449	0.091901	0.994799	-0.043930	0.000603	0.044061	0.999029						
04552														1.996949	-4.756810	8.658606	0.995875	-0.090669	-0.003352	0.090379	0.994588	-0.051256	0.007982	0.050742	0.998680						
04553														1.799595	-4.231765	9.532610	0.996079	-0.087703	-0.011605	0.086758	0.994054	-0.065804	0.017307	0.064539	0.997765						
04554														1.798833	-4.105832	10.170428	0.996401	-0.082461	-0.019601	0.080304	0.992426	-0.092961	0.027118	0.091052	0.995477						
04555														1.554906	-4.121682	11.792577	0.996812	-0.074437	-0.028720	0.069756	0.987812	-0.139145	0.038727	0.136698	0.989855						
04556														2.010142	-4.215069	12.175241	0.996993	-0.066794	-0.039281	0.057046	0.975753	-0.211308	0.052443	0.208431	0.976630						
04557														2.598180	-5.362652	11.628463	0.996337	-0.060240	-0.060697	0.039275	0.952829	-0.300955	0.075963	0.297469	0.951705						
04558														0.695523	-7.411285	10.187529	0.996048	-0.042607	-0.077929	0.008287	0.918177	-0.396083	0.088428	0.393872	0.914902						
04559														8.048562	-8.573670	9.464803	0.994302	-0.030231	-0.102223	-0.022151	0.879419	-0.475533	0.104273	0.475087	0.873739						
04560														2.669324	-5.747572	13.724412	0.991068	-0.035728	-0.128485	-0.033983	0.863980	-0.502377	0.128957	0.502256	0.855049						
04561														5.186318	0.836869	8.291109	0.989943	-0.028860	-0.138494	-0.045702	0.861238	-0.506142	0.133884	0.507381	0.851257						
04562														2.745645	0.403585	7.839600	0.990767	-0.024270	-0.133384	-0.045349	0.867847	-0.494758	0.127765	0.496239	0.858733						
04563														1.014894	-0.536668	7.686148	0.992927	-0.015463	-0.117713	-0.042702	0.878615	-0.475617	0.110779	0.477280	0.871741						
04564														0.541908	-2.853430	7.997584	0.994427	-0.001567	-0.105417	-0.045411	0.896015	-0.441697	0.095147	0.444022	0.890950						
04565														1.239636	-4.928791	7.739157	0.995182	0.013816	-0.097071	-0.051303	0.917058	-0.395440	0.083556	0.398515	0.913348						
04566														2.009829	-6.148149	7.190751	0.996451	0.022551	-0.081095	-0.049076	0.938394	-0.342065	0.068385	0.344831	0.936171						
04567														1.956431	-7.785234	6.769602	0.998405	0.019658	-0.052932	-0.034024	0.957589	-0.286121	0.045062	0.287465	0.956730						
04568														0.742468	-8.654290	6.475178	0.999803	0.007006	-0.018588	-0.011057	0.973658	-0.227746	0.016503	0.227906	0.973543						
04569														0.295070	-9.354877	6.646564	0.999883	-0.005230	0.014378	0.007556	0.985965	-0.166778	-0.013304	0.166867	0.985890						
04570														0.026067	-9.822692	6.147239	0.999042	-0.015664	0.040866	0.019915	0.994188	-0.105804	-0.038971	0.106516	0.993547						
04571														0.087255	-10.350446	5.307490	0.997592	-0.023298	0.065320	0.026632	0.998361	-0.050652	-0.064033	0.052269	0.996578						
04572														-0.388444	-11.657579	4.967040	0.995688	-0.027794	0.088506	0.028215	0.999596	-0.003513	-0.088373	0.005995	0.996069						
04573														-0.670378	-11.780898	4.265452	0.993265	-0.031276	0.111562	0.027456	0.998988	0.035612	-0.112563	-0.032309	0.993119						
04574														-0.770098	-11.526668	3.717177	0.990839	-0.037515	0.129730	0.029609	0.997616	0.062339	-0.131759	-0.057927	0.989588						
04575														-1.059608	-11.284505	3.879911	0.989096	-0.044923	0.140257	0.034149	0.996345	0.078300	-0.143261	-0.072657	0.987014						
04576														0.708084	-11.675722	0.896026	0.991224	-0.055588	0.119936	0.047163	0.996291	0.071975	-0.123492	-0.065687	0.990169						
04577														0.242323	-12.613900	8.482017	0.995489	-0.059269	0.074092	0.055708	0.997232	0.049245	-0.076805	-0.044896	0.996035						
04578														-3.143217	-5.374999	12.691751	0.997623	-0.059915	0.034045	0.058660	0.997601	0.036754	-0.036166	-0.034669	0.998744						
04579														0.631799	-1.385982	10.441310	0.997983	-0.060741	0.018455	0.060352	0.997958	0.020926	-0.019689	-0.019770	0.999611						
04580														-0.314535	-8.147995	9.601891	0.998024	-0.062417	0.007212	0.062387	0.998043	0.004261	-0.007464	-0.003803	0.999965						
04581														-0.086866	-6.436257	8.015061	0.998009	-0.062705	0.006745	0.062722	0.998028	-0.002307	-0.006587	0.002726	0.999975						
04582														1.427156	-5.795664	8.262041	0.998006	-0.062666	0.007600	0.062718	0.998008	-0.006771	-0.007160	0.007234	0.999948						
04583														1.672158	-4.758152	8.783324	0.998028	-0.062125	0.008930	0.062209	0.998018	-0.009512	-0.008322	0.010048	0.999915						
04584														1.714242	-5.013621	8.582816	0.998036	-0.061817	0.010119	0.061937	0.998008	-0.011954	-0.009360	0.012557	0.999877						
04585														1.361839	-5.343213	8.298460	0.998025	-0.061842	0.011012	0.061998	0.997972	-0.014429	-0.010098	0.015083	0.999835						
04586														1.203175	-5.075036	8.504037	0.998022	-0.061722	0.011914	0.061920	0.997935	-0.017090	-0.010834	0.017794	0.999783						
04587														1.473363	-4.833197	8.524905	0.998002	-0.061754	0.013348	0.062016	0.997871	-0.020195	-0.012073	0.020982	0.999707						
04588														1.565144	-4.977317	8.326553	0.998007	-0.061490	0.014158	0.061809	0.997814	-0.023367	-0.012690	0.024195	0.999627						
04589														1.247076	-5.013471	8.294757	0.998020	-0.061150	0.014746	0.061520	0.997763	-0.026142	-0.013114	0.026998	0.999549						
04590														1.267535	-5.029467	8.254094	0.998031	-0.060783	0.015475	0.061208	0.997715	-0.028592	-0.013702	0.029483	0.999471						
04591														1.304193	-5.037650	8.240904	0.998032	-0.060525	0.016369	0.061001	0.997676	-0.030341	-0.014495	0.031280	0.999406						
04592														1.302808	-5.388716	8.038464	0.998014	-0.060558	0.017348	0.061076	0.997649	-0.031072	-0.015425	0.032070	0.999367						
04593														1.339246	-5.243527	8.114562	0.998012	-0.060472	0.017764	0.061002	0.997656	-0.030990	-0.015848	0.032012	0.999362						
04594														1.352488	-4.756000	8.464551	0.997994	-0.060510	0.018615	0.061073	0.997640	-0.031371	-0.016673	0.032445	0.999334						
04595														1.216743	-5.006512	8.250810	0.997973	-0.060498	0.019742	0.061123	0.997592	-0.032788	-0.017711	0.033928	0.999267						
04596														1.926720	-4.714706	8.275389	0.998006	-0.060082	0.019329	0.060734	0.997536	-0.035114	-0.017171	0.036218	0.999196						
04597														1.884489	-4.669300	8.527572	0.998118	-0.059142	0.016203	0.059724	0.997486	-0.038130	-0.013908	0.039026	0.999141						
04598														1.654225	-5.100567	8.283796	0.998228	-0.058331	0.011774	0.058770	0.997418	-0.041277	-0.009336	0.041896	0.999078						
04599														1.535925	-5.118403	8.435055	0.998318	-0.057813	0.004274	0.057950	0.997215	-0.046956	-0.001547	0.047125	0.998888						
04600														1.100268	-4.862159	8.927274	0.998362	-0.057090	-0.003720	0.056784	0.996749	-0.057163	0.006972	0.056858	0.998358						
04601														1.018591	-4.984639	8.951458	0.998398	-0.055793	-0.009459	0.054968	0.995874	-0.072203	0.013448	0.071567	0.997345						
04602														1.060991	-5.392156	9.259033	0.998402	-0.055041	-0.012793	0.053621	0.994234	-0.092868	0.017831	0.092034	0.995596						
04603														2.284219	-4.741808	10.425562	0.998250	-0.055866	-0.019391	0.053012	0.990714	-0.125202	0.026205	0.123955	0.991942						
04604														3.758463	-3.669572	11.199921	0.998124	-0.051667	-0.032839	0.045186	0.983667	-0.174231	0.041305	0.172420	0.984157						
04605														2.259471	-4.167029	11.711052	0.997406	-0.044969	-0.056214	0.030200	0.970227	-0.240309	0.065347	0.237988	0.969067						
04606														2.562272	-6.928441	10.593025	0.995689	-0.038478	-0.084400	0.009465	0.947301	-0.320205	0.092273	0.318026	0.943581						
04607														5.300198	-8.659299	10.753965	0.992539	-0.031457	-0.117801	-0.019146	0.913952	-0.405371	0.120416	0.404602	0.906530						
04608														2.377610	-8.129387	15.681597	0.984752	-0.055692	-0.164810	-0.027244	0.886314	-0.462283	0.171818	0.459724	0.871282						
04609														4.241887	-0.258715	11.348130	0.983135	-0.059849	-0.172814	-0.030902	0.876988	-0.479517	0.180254	0.476770	0.860348						
04610														1.971832	-0.560772	9.702874	0.981869	-0.061253	-0.179391	-0.034045	0.873985	-0.484759	0.186478	0.482077	0.856053						
04611														2.006390	0.292378	7.903368	0.982231	-0.053420	-0.179915	-0.038761	0.880226	-0.472969	0.183632	0.471539	0.862514						
04612														1.555079	-0.521004	7.730465	0.983480	-0.042671	-0.175915	-0.041212	0.893515	-0.447139	0.176263	0.447002	0.876995						
04613														1.506749	-1.706605	7.914035	0.985915	-0.032273	-0.164103	-0.037756	0.912926	-0.406374	0.162929	0.406846	0.898849						
04614														1.530620	-2.818345	7.877940	0.989319	-0.024624	-0.143673	-0.027899	0.935422	-0.352430	0.143073	0.352674	0.924744						
04615														1.533707	-3.662587	7.822816	0.992890	-0.022082	-0.116971	-0.012705	0.957373	-0.288575	0.118357	0.288009	0.950285						
04616														2.108819	-5.183458	7.958555	0.996084	-0.027852	-0.083910	0.008873	0.975783	-0.218560	0.087965	0.216959	0.972209						
04617														2.369534	-7.464345	8.087354	0.997955	-0.046487	-0.043861	0.039685	0.988651	-0.144896	0.050099	0.142860	0.988474						
04618														1.644811	-10.026117	7.907105	0.997293	-0.073500	-0.001878	0.073195	0.994921	-0.069101	0.006947	0.068776	0.997608						
04619														-0.196317	-11.965928	7.066033	0.994384	-0.099055	0.037256	0.099001	0.995082	0.003282	-0.037398	0.000424	0.999300						
04620														-2.099772	-13.172924	6.018937	0.991094	-0.111497	0.072807	0.106980	0.992247	0.063257	-0.079295	-0.054905	0.995338						
04621														-2.594471	-14.298179	4.312248	0.989156	-0.105731	0.101938	0.094872	0.989823	0.106064	-0.112115	-0.095242	0.989120						
04622														-0.776516	-15.679813	2.650025	0.989036	-0.089840	0.117204	0.074333	0.988650	0.130557	-0.127603	-0.120414	0.984489						
04623														-3.697287	-20.523106	-2.260316	0.993021	-0.082318	0.084451	0.071986	0.990301	0.118838	-0.093415	-0.111929	0.989316						
04624														-4.394938	-15.973516	4.312209	0.992412	-0.100495	0.070842	0.094338	0.991864	0.085476	-0.078856	-0.078144	0.993818						
04625														0.584494	-0.364796	12.217855	0.992820	-0.108846	0.049611	0.106339	0.993039	0.050658	-0.054779	-0.045018	0.997483						
04626														2.350820	-5.120143	12.238098	0.993801	-0.107102	0.029814	0.106228	0.993904	0.029519	-0.032794	-0.026169	0.999119						
04627														0.434515	-8.312243	10.313325	0.994162	-0.106660	0.016309	0.106638	0.994295	0.002233	-0.016455	-0.000481	0.999864						
04628														-0.202541	-8.008041	7.236594	0.994311	-0.105775	0.012532	0.105838	0.994373	-0.004483	-0.011987	0.005783	0.999911						
04629														1.457931	-5.731999	8.189257	0.994392	-0.105306	0.009804	0.105385	0.994400	-0.007881	-0.008920	0.008870	0.999921						
04630														1.771350	-4.050928	9.102591	0.994412	-0.105270	0.007895	0.105351	0.994378	-0.010669	-0.006728	0.011441	0.999912						
04631														1.225033	-5.171554	8.477109	0.994400	-0.105474	0.006682	0.105554	0.994328	-0.013044	-0.005269	0.013676	0.999893						
04632														0.774516	-5.892041	8.096163	0.994380	-0.105677	0.006386	0.105764	0.994273	-0.015335	-0.004729	0.015924	0.999862						
04633														1.084068	-5.059261	8.519101	0.994342	-0.105977	0.007315	0.106093	0.994196	-0.017875	-0.005379	0.018550	0.999813						
04634														1.605389	-4.479676	8.741327	0.994314	-0.106148	0.008497	0.106306	0.994110	-0.021060	-0.006211	0.021843	0.999742						
04635														1.518272	-5.065384	8.368923	0.994326	-0.105984	0.009171	0.106180	0.994045	-0.024495	-0.006520	0.025330	0.999658						
04636														1.328956	-5.449168	8.161686	0.994353	-0.105717	0.009256	0.105935	0.993995	-0.027423	-0.006302	0.028249	0.999581						
04637														1.173828	-5.105695	8.330612	0.994415	-0.105124	0.009340	0.105359	0.993988	-0.029778	-0.006153	0.030596	0.999513						
04638														1.179035	-5.024696	8.324036	0.994463	-0.104618	0.009951	0.104883	0.993984	-0.031534	-0.006592	0.032403	0.999453						
04639														1.259420	-5.064048	8.236952	0.994502	-0.104160	0.010764	0.104459	0.993996	-0.032566	-0.007307	0.033511	0.999412						
04640														1.328591	-5.179422	8.225537	0.994542	-0.103681	0.011695	0.104021	0.994003	-0.033730	-0.008128	0.034763	0.999363						
04641														1.321887	-5.098765	8.216744	0.994548	-0.103509	0.012654	0.103889	0.993994	-0.034398	-0.009018	0.035525	0.999328						
04642														1.308487	-5.081160	8.205948	0.994542	-0.103447	0.013596	0.103861	0.993996	-0.034408	-0.009955	0.035632	0.999315						
04643														1.241983	-5.241421	8.151838	0.994548	-0.103273	0.014438	0.103715	0.994017	-0.034252	-0.010815	0.035563	0.999309						
04644														1.004607	-5.255567	8.221540	0.994525	-0.103271	0.015967	0.103763	0.994027	-0.033817	-0.012380	0.035289	0.999300						
04645														1.354193	-5.205820	8.127325	0.994467	-0.103523	0.017845	0.104074	0.994011	-0.033338	-0.014287	0.035011	0.999285						
04646														1.890790	-4.644292	8.238556	0.994496	-0.103247	0.017809	0.103790	0.994056	-0.032882	-0.014308	0.034549	0.999301						
04647														1.801272	-4.280246	8.779769	0.994608	-0.102493	0.015841	0.102982	0.994104	-0.033940	-0.012269	0.035388	0.999298						
04648														1.288386	-5.223074	8.344653	0.994734	-0.101585	0.013615	0.102021	0.994111	-0.036541	-0.009823	0.037737	0.999239						
04649														1.092310	-5.484750	8.270734	0.994864	-0.100525	0.011869	0.100927	0.994076	-0.040327	-0.007745	0.041318	0.999116						
04650														2.200298	-4.767189	8.781035	0.995068	-0.098872	0.008008	0.099143	0.993926	-0.047771	-0.003236	0.048330	0.998826						
04651														1.491535	-5.182238	8.920978	0.995321	-0.096563	0.003396	0.096595	0.993596	-0.058625	0.002287	0.058679	0.998274						
04652														1.558510	-5.251571	8.517245	0.995597	-0.093733	-0.000367	0.093465	0.993035	-0.071739	0.007089	0.071389	0.997423						
04653														2.090652	-4.400810	9.672868	0.996129	-0.087812	-0.004072	0.087071	0.991969	-0.091739	0.012095	0.091029	0.995775						
04654														3.190541	-3.411978	11.835454	0.997325	-0.072470	-0.009539	0.070647	0.989171	-0.128645	0.018759	0.127627	0.991645						
04655														1.933720	-3.723921	13.058248	0.998640	-0.049186	-0.017259	0.045144	0.981623	-0.185416	0.026062	0.184385	0.982509						
04656														3.224623	-4.666018	11.806046	0.999254	-0.026125	-0.028448	0.018095	0.967356	-0.252774	0.034123	0.252071	0.967107						
04657														7.426133	-6.013045	14.816959	0.999374	-0.021858	-0.027831	0.012164	0.950699	-0.309878	0.033232	0.309345	0.950369						
04658														2.838204	1.218029	11.761396	0.998712	-0.037070	-0.034658	0.022955	0.939078	-0.342937	0.045259	0.341700	0.938719						
04659														2.068501	0.419671	11.765768	0.997636	-0.040180	-0.055750	0.017831	0.934827	-0.354655	0.066367	0.352822	0.933334						
04660														2.529018	1.129082	9.342690	0.996018	-0.037827	-0.080730	0.007712	0.938687	-0.344683	0.088818	0.342688	0.935241						
04661														3.658297	0.544471	8.368497	0.994526	-0.040620	-0.096268	0.007747	0.947469	-0.319755	0.104199	0.317259	0.942597						
04662														4.234915	-1.050409	8.012077	0.994405	-0.047758	-0.094220	0.019074	0.958480	-0.284520	0.103896	0.281131	0.954029						
04663														4.495679	-2.866396	7.919280	0.995207	-0.059340	-0.077735	0.038932	0.969571	-0.241697	0.089712	0.237512	0.967233						
04664														3.933836	-3.877922	8.034233	0.995950	-0.074334	-0.050578	0.063272	0.979136	-0.193106	0.063877	0.189124	0.979873						
04665														3.114729	-5.209225	8.414391	0.995889	-0.088340	-0.020017	0.084625	0.986221	-0.142151	0.032299	0.139872	0.989643						
04666														2.618547	-7.266343	9.043067	0.995247	-0.096666	0.011785	0.097320	0.991609	-0.085090	-0.003460	0.085832	0.996304						
04667														2.078839	-7.914291	7.728151	0.993700	-0.102138	0.046135	0.103368	0.994326	-0.025112	-0.043309	0.029723	0.998619						
04668														0.915519	-9.205696	6.589795	0.991155	-0.106835	0.078724	0.105044	0.994113	0.026564	-0.081099	-0.018059	0.996542						
04669														-1.331132	-10.030731	5.585120	0.988865	-0.103825	0.106612	0.097404	0.993199	0.063777	-0.112509	-0.052683	0.992253						
04670														-2.923440	-13.199970	5.020889	0.986854	-0.089907	0.134294	0.078880	0.993228	0.085296	-0.141054	-0.073582	0.987264						
04671														-1.238820	-13.402640	2.304508	0.984251	-0.072709	0.161131	0.057668	0.993696	0.096135	-0.167105	-0.085329	0.982240						
04672														-2.749551	-18.613104	-1.069675	0.988920	-0.065586	0.133177	0.056032	0.995663	0.074272	-0.137470	-0.065987	0.988305						
04673														-2.108900	-19.668046	1.724340	0.993433	-0.070636	0.090003	0.067612	0.997054	0.036219	-0.092296	-0.029896	0.995283						
04674														-6.249487	-7.166568	13.207697	0.996534	-0.070327	0.044436	0.069426	0.997355	0.021509	-0.045831	-0.018350	0.998781						
04675														3.004119	-4.317310	12.117478	0.997109	-0.070814	0.027554	0.070790	0.997490	0.001861	-0.027617	0.000095	0.999619						
04676														-0.312430	-6.958324	9.549447	0.997339	-0.071015	0.016471	0.071099	0.997459	-0.004581	-0.016104	0.005740	0.999854						
04677														0.954628	-7.169824	7.437359	0.997393	-0.071001	0.012867	0.071126	0.997422	-0.009553	-0.012156	0.010444	0.999872						
04678														0.785150	-5.614720	8.373196	0.997421	-0.071134	0.009536	0.071263	0.997361	-0.013853	-0.008525	0.014497	0.999859						
04679														1.757783	-4.470867	8.928900	0.997428	-0.071310	0.007247	0.071422	0.997307	-0.016667	-0.006039	0.017142	0.999835						
04680														1.302136	-5.483469	8.227943	0.997423	-0.071535	0.005438	0.071624	0.997260	-0.018523	-0.004098	0.018865	0.999814						
04681														0.993538	-5.754344	8.137685	0.997409	-0.071842	0.003819	0.071904	0.997221	-0.019512	-0.002407	0.019736	0.999802						
04682														1.177043	-4.947385	8.575019	0.997399	-0.072025	0.002897	0.072069	0.997190	-0.020470	-0.001414	0.020626	0.999786						
04683														1.264620	-4.685644	8.691610	0.997405	-0.071942	0.002869	0.071988	0.997166	-0.021869	-0.001288	0.022018	0.999757						
04684														1.161743	-5.154161	8.391599	0.997424	-0.071646	0.003352	0.071706	0.997140	-0.023886	-0.001631	0.024065	0.999709						
04685														1.149942	-5.374684	8.161046	0.997457	-0.071162	0.003998	0.071240	0.997138	-0.025302	-0.002186	0.025523	0.999672						
04686														1.372676	-5.276651	8.121342	0.997480	-0.070801	0.004644	0.070897	0.997155	-0.025609	-0.002818	0.025874	0.999661						
04687														1.261514	-5.007142	8.293428	0.997504	-0.070422	0.005166	0.070531	0.997187	-0.025376	-0.003364	0.025678	0.999665						
04688														0.747541	-5.173251	8.317058	0.997516	-0.070091	0.007005	0.070243	0.997229	-0.024508	-0.005268	0.024939	0.999675						
04689														0.937177	-5.231347	8.258268	0.997458	-0.070439	0.010757	0.070666	0.997246	-0.022497	-0.009143	0.023200	0.999689						
04690														1.170556	-4.987520	8.309088	0.997375	-0.070928	0.014604	0.071200	0.997280	-0.019047	-0.013213	0.020036	0.999712						
04691														1.567625	-4.872537	8.327962	0.997273	-0.071570	0.018024	0.071844	0.997303	-0.015036	-0.016899	0.016290	0.999724						
04692														1.722128	-4.485811	8.315782	0.997197	-0.072027	0.020269	0.072275	0.997315	-0.011757	-0.019368	0.013189	0.999725						
04693														1.084077	-5.112224	8.227683	0.997114	-0.072613	0.022153	0.072837	0.997299	-0.009501	-0.021403	0.011088	0.999709						
04694														1.871360	-4.636429	8.272190	0.997108	-0.072692	0.022179	0.072888	0.997307	-0.008175	-0.021525	0.009768	0.999721						
04695														2.380180	-3.537149	9.065696	0.997212	-0.072154	0.019037	0.072326	0.997345	-0.008513	-0.018373	0.009866	0.999783						
04696														1.682249	-4.397724	8.779324	0.997319	-0.071584	0.015166	0.071749	0.997366	-0.010620	-0.014366	0.011679	0.999829						
04697														0.732741	-5.828171	8.205486	0.997405	-0.071040	0.011693	0.071202	0.997363	-0.014041	-0.010665	0.014837	0.999833						
04698														1.640311	-5.341997	8.482975	0.997454	-0.070773	0.008781	0.070931	0.997297	-0.019171	-0.007401	0.019745	0.999778						
04699														3.629466	-3.462091	9.230779	0.997561	-0.069797	0.000579	0.069785	0.997159	-0.028361	0.001402	0.028332	0.999598						
04700														2.541423	-2.901601	10.542349	0.997694	-0.065880	-0.016331	0.065010	0.996679	-0.049040	0.019507	0.047865	0.998663						
04701														1.211307	-4.369831	11.212827	0.997974	-0.056449	-0.029354	0.053608	0.994505	-0.089925	0.034269	0.088169	0.995516						
04702														1.438863	-4.119071	11.708727	0.997863	-0.043520	-0.048733	0.035589	0.987554	-0.153199	0.054794	0.151137	0.986993						
04703														0.554162	-4.209609	12.212653	0.997247	-0.029348	-0.068098	0.012304	0.971105	-0.238335	0.073125	0.236841	0.968793						
04704														2.685585	-5.649545	10.689169	0.996080	-0.016228	-0.086953	-0.013795	0.942500	-0.333920	0.087372	0.333811	0.938582						
04705														7.226661	-9.265686	9.996581	0.991857	-0.022275	-0.125392	-0.033271	0.905069	-0.423962	0.122932	0.424682	0.896958						
04706														1.406517	-6.513985	14.518181	0.986315	-0.052584	-0.156263	-0.028574	0.878914	-0.476124	0.162378	0.474073	0.865383						
04707														5.069626	1.897718	8.871820	0.988121	-0.058777	-0.141993	-0.018458	0.871887	-0.489359	0.152565	0.486167	0.860445						
04708														1.288101	0.244062	9.429107	0.988739	-0.059866	-0.137153	-0.014673	0.873298	-0.486965	0.148928	0.483494	0.862586						
04709														1.756005	0.474951	8.499199	0.989828	-0.051224	-0.132729	-0.016250	0.886122	-0.463168	0.141339	0.460613	0.876275						
04710														1.517025	-0.979250	8.667703	0.991258	-0.041029	-0.125397	-0.016166	0.905490	-0.424061	0.130944	0.422381	0.896910						
04711														2.468149	-2.780671	8.289892	0.993033	-0.035572	-0.112336	-0.008692	0.928632	-0.370899	0.117512	0.369292	0.921854						
04712														2.150616	-4.964984	7.888965	0.995258	-0.037597	-0.089710	0.007998	0.950788	-0.309740	0.096940	0.307553	0.946580						
04713														1.336464	-6.450243	7.866830	0.997437	-0.045525	-0.055207	0.030740	0.969307	-0.243922	0.064617	0.241600	0.968222						
04714														0.580183	-7.663679	8.328009	0.998280	-0.055891	-0.017700	0.051852	0.982602	-0.178341	0.027359	0.177116	0.983810						
04715														0.800204	-9.487122	8.094705	0.997507	-0.069310	0.013238	0.070370	0.990980	-0.114045	-0.005214	0.114692	0.993387						
04716														0.619487	-10.913790	6.818186	0.995972	-0.082551	0.035009	0.084460	0.994790	-0.057088	-0.030114	0.059814	0.997755						
04717														0.132394	-12.252565	6.062491	0.994453	-0.090711	0.053236	0.091261	0.995795	-0.008005	-0.052286	0.012819	0.998550						
04718														0.124417	-12.065950	4.365151	0.993211	-0.092548	0.070475	0.090602	0.995425	0.030336	-0.072960	-0.023745	0.997052						
04719														-0.008998	-13.291039	3.198071	0.991842	-0.093618	0.086518	0.089036	0.994487	0.055391	-0.091227	-0.047236	0.994709						
04720														-1.208473	-12.759173	2.017130	0.989588	-0.095783	0.107427	0.089090	0.993869	0.065473	-0.113039	-0.055220	0.992055						
04721														0.253724	-12.234793	1.582176	0.986678	-0.098617	0.129387	0.091917	0.994146	0.056782	-0.134229	-0.044132	0.989967						
04722														2.965402	-16.089519	0.458038	0.989215	-0.110011	0.096698	0.108146	0.993837	0.024329	-0.098779	-0.013609	0.995016						
04723														-8.611848	-9.945859	11.803780	0.993135	-0.107999	0.044930	0.107540	0.994122	0.012528	-0.046019	-0.007610	0.998912						
04724														-0.350403	-6.022399	12.227093	0.993790	-0.107054	0.030344	0.107253	0.994219	-0.005017	-0.029632	0.008240	0.999527						
04725														2.844193	-3.882559	9.607005	0.994177	-0.105833	0.020288	0.106133	0.994248	-0.014346	-0.018653	0.016416	0.999691						
04726														0.684243	-6.084602	8.107737	0.994461	-0.104119	0.014393	0.104416	0.994297	-0.021690	-0.012053	0.023073	0.999661						
04727														-0.003119	-6.746817	7.674249	0.994589	-0.103321	0.010829	0.103579	0.994257	-0.026917	-0.007985	0.027893	0.999579						
04728														1.013020	-5.539851	7.830576	0.994577	-0.103470	0.010484	0.103729	0.994206	-0.028200	-0.007506	0.029134	0.999547						
04729														1.906316	-4.891356	8.375952	0.994575	-0.103564	0.009765	0.103793	0.994234	-0.026935	-0.006919	0.027803	0.999589						
04730														1.532139	-5.236268	8.476802	0.994532	-0.104052	0.008871	0.104250	0.994214	-0.025887	-0.006126	0.026670	0.999626						
04731														1.514915	-5.298218	8.373275	0.994496	-0.104535	0.007119	0.104685	0.994171	-0.025776	-0.004383	0.026380	0.999642						
04732														1.271979	-5.029493	8.495231	0.994461	-0.104960	0.005596	0.105072	0.994115	-0.026364	-0.002796	0.026806	0.999637						
04733														1.261623	-5.091097	8.453122	0.994435	-0.105258	0.004509	0.105342	0.994059	-0.027398	-0.001598	0.027721	0.999614						
04734														1.270356	-5.264303	8.363142	0.994410	-0.105521	0.003683	0.105583	0.994000	-0.028580	-0.000645	0.028809	0.999585						
04735														1.259042	-5.199877	8.289547	0.994404	-0.105611	0.002575	0.105641	0.993971	-0.029363	0.000542	0.029471	0.999565						
04736														1.105392	-5.081813	8.363667	0.994396	-0.105707	0.001718	0.105711	0.993957	-0.029581	0.001419	0.029596	0.999561						
04737														1.157922	-5.059612	8.279764	0.994404	-0.105634	0.001322	0.105628	0.993980	-0.029082	0.001758	0.029059	0.999576						
04738														1.127251	-5.198572	8.195022	0.994425	-0.105437	0.001225	0.105430	0.994038	-0.027787	0.001712	0.027761	0.999613						
04739														1.122639	-5.174053	8.216957	0.994461	-0.105098	0.001438	0.105100	0.994127	-0.025803	0.001282	0.025811	0.999666						
04740														0.789586	-5.019244	8.432585	0.994476	-0.104927	0.002837	0.104964	0.994190	-0.023858	-0.000317	0.024024	0.999711						
04741														1.086061	-4.821197	8.468009	0.994434	-0.105208	0.005646	0.105309	0.994188	-0.022369	-0.003260	0.022839	0.999734						
04742														1.404998	-4.774340	8.387712	0.994354	-0.105762	0.008631	0.105922	0.994156	-0.020859	-0.006375	0.021656	0.999745						
04743														1.435229	-5.081712	8.251238	0.994285	-0.106223	0.010694	0.106411	0.994142	-0.018928	-0.008621	0.019957	0.999764						
04744														0.994002	-5.493294	8.058701	0.994211	-0.106728	0.012406	0.106927	0.994126	-0.016712	-0.010549	0.017942	0.999783						
04745														1.305642	-5.292751	7.920108	0.994143	-0.107204	0.013676	0.107395	0.994116	-0.014104	-0.012084	0.015491	0.999807						
04746														1.678892	-4.384574	8.719581	0.994173	-0.107040	0.012732	0.107179	0.994182	-0.010745	-0.011508	0.012047	0.999861						
04747														1.803219	-3.845321	9.204660	0.994201	-0.106868	0.011978	0.106986	0.994213	-0.009742	-0.010868	0.010967	0.999881						
04748														2.572388	-3.915241	8.905501	0.994241	-0.106730	0.009677	0.106857	0.994179	-0.013759	-0.008153	0.014714	0.999859						
04749														2.946987	-4.288423	8.979116	0.994454	-0.105150	0.002238	0.105174	0.994181	-0.023293	0.000224	0.023399	0.999726						
04750														2.646178	-3.330597	10.854173	0.994754	-0.101293	-0.014286	0.100521	0.993817	-0.047159	0.018975	0.045476	0.998785						
04751														1.352362	-3.428502	12.617940	0.995695	-0.088399	-0.027863	0.085276	0.991499	-0.098277	0.036313	0.095478	0.994769						
04752														2.876489	-4.390751	11.776688	0.995766	-0.076374	-0.051167	0.066608	0.983013	-0.171022	0.063359	0.166890	0.983938						
04753														0.663192	-5.699079	11.245648	0.995619	-0.058030	-0.073311	0.037713	0.966719	-0.253047	0.085555	0.249174	0.964672						
04754														7.195592	-6.882801	11.279334	0.993050	-0.055168	-0.103966	0.017877	0.943793	-0.330054	0.116331	0.325901	0.938219						
04755														0.984700	-3.491112	13.872978	0.991026	-0.064751	-0.116935	0.017431	0.929967	-0.367228	0.132524	0.361895	0.922751						
04756														3.798852	0.230394	10.403660	0.990539	-0.068045	-0.119173	0.016966	0.922470	-0.385697	0.136178	0.380026	0.914897						
04757														1.342525	0.345182	9.984459	0.991060	-0.063319	-0.117432	0.013248	0.922558	-0.385630	0.132756	0.380627	0.915150						
04758														1.342317	-0.491239	9.351869	0.992305	-0.050026	-0.113260	0.004603	0.929019	-0.370004	0.123730	0.366636	0.922100						
04759														1.795533	-1.172347	8.878794	0.993832	-0.035709	-0.104989	-0.002221	0.940138	-0.340787	0.110873	0.338918	0.934260						
04760														2.036205	-1.892178	8.509274	0.995525	-0.026278	-0.090769	-0.002351	0.953374	-0.301783	0.094467	0.300645	0.949046						
04761														1.906466	-2.844714	8.392789	0.997234	-0.023961	-0.070355	0.005184	0.966726	-0.255760	0.074142	0.254688	0.964177						
04762														1.659034	-3.950861	8.774479	0.998642	-0.025468	-0.045457	0.015716	0.979001	-0.203249	0.049679	0.202258	0.978071						
04763														1.807082	-4.792672	8.655787	0.999390	-0.028925	-0.019554	0.025793	0.989118	-0.144845	0.023531	0.144252	0.989261						
04764														1.843773	-6.051274	8.069562	0.999378	-0.034643	0.006530	0.035076	0.995685	-0.085917	-0.003525	0.086092	0.996281						
04765														1.682885	-7.393180	6.770263	0.998432	-0.045130	0.033119	0.046148	0.998464	-0.030644	-0.031685	0.032124	0.998982						
04766														0.155680	-10.492081	6.639213	0.996171	-0.061418	0.062219	0.060594	0.998049	0.015057	-0.063022	-0.011229	0.997949						
04767														-0.694978	-13.074286	5.925607	0.991809	-0.081326	0.098491	0.076213	0.995595	0.054610	-0.102498	-0.046656	0.993638						
04768														-1.113781	-14.238723	4.035686	0.986924	-0.097865	0.128074	0.087806	0.992759	0.081971	-0.135168	-0.069653	0.988371						
04769														-1.135594	-14.786831	2.469373	0.984001	-0.104128	0.144566	0.090647	0.991156	0.096913	-0.153379	-0.082258	0.984738						
04770														-0.542979	-12.577262	1.286945	0.983071	-0.096590	0.155699	0.082223	0.991958	0.096222	-0.163741	-0.081791	0.983107						
04771														-0.802858	-12.616451	-2.444517	0.988331	-0.089465	0.123281	0.082043	0.994570	0.064025	-0.128339	-0.053163	0.990304						
04772														0.624268	-15.245942	12.848307	0.994639	-0.085699	0.057865	0.084160	0.996044	0.028524	-0.060080	-0.023501	0.997917						
04773														-1.875154	-4.157637	13.794093	0.995767	-0.086405	0.031333	0.086052	0.996213	0.012461	-0.032291	-0.009712	0.999431						
04774														3.836857	-6.690076	8.895144	0.996058	-0.087144	0.016546	0.087113	0.996195	0.002580	-0.016708	-0.001128	0.999860						
04775														-2.081214	-7.163841	8.258477	0.996065	-0.087850	0.011683	0.087844	0.996134	0.001036	-0.011729	-0.000005	0.999931						
04776														0.328228	-6.406070	8.113610	0.995998	-0.088640	0.011411	0.088644	0.996063	0.000185	-0.011383	0.000828	0.999935						
04777														1.912431	-4.451574	8.869061	0.995939	-0.089169	0.012426	0.089187	0.996014	-0.000946	-0.012292	0.002051	0.999922						
04778														2.020973	-4.403396	8.828568	0.995892	-0.089599	0.013049	0.089628	0.995974	-0.001693	-0.012844	0.002855	0.999913						
04779														1.099344	-5.425284	8.274790	0.995846	-0.090067	0.013377	0.090099	0.995931	-0.001782	-0.013162	0.002980	0.999909						
04780														1.100708	-5.254825	8.255389	0.995795	-0.090549	0.013874	0.090576	0.995889	-0.001358	-0.013694	0.002609	0.999903						
04781														1.318169	-4.549290	8.667165	0.995777	-0.090593	0.014868	0.090619	0.995885	-0.001101	-0.014707	0.002443	0.999889						
04782														1.617209	-4.403563	8.675002	0.995755	-0.090592	0.016261	0.090628	0.995884	-0.001487	-0.016060	0.002954	0.999867						
04783														1.401835	-4.944623	8.247153	0.995723	-0.090737	0.017370	0.090785	0.995868	-0.002011	-0.017116	0.003580	0.999847						
04784														1.494015	-4.858453	8.289199	0.995712	-0.090793	0.017724	0.090851	0.995861	-0.002505	-0.017423	0.004105	0.999840						
04785														1.534734	-4.631352	8.514411	0.995712	-0.090828	0.017574	0.090889	0.995857	-0.002718	-0.017255	0.004303	0.999842						
04786														1.242768	-4.784931	8.450159	0.995725	-0.090704	0.017458	0.090766	0.995868	-0.002774	-0.017135	0.004346	0.999844						
04787														1.202955	-4.974227	8.361044	0.995736	-0.090525	0.017738	0.090589	0.995884	-0.002848	-0.017407	0.004443	0.999839						
04788														1.326709	-4.820959	8.433397	0.995761	-0.090210	0.017931	0.090275	0.995913	-0.002850	-0.017601	0.004456	0.999835						
04789														1.319551	-4.858210	8.481450	0.995790	-0.089777	0.018486	0.089847	0.995951	-0.003016	-0.018141	0.004665	0.999825						
04790														1.356172	-4.770048	8.482357	0.995821	-0.089264	0.019285	0.089351	0.995993	-0.003707	-0.018877	0.005414	0.999807						
04791														1.195730	-4.721331	8.471978	0.995834	-0.088789	0.020770	0.088903	0.996030	-0.004595	-0.020280	0.006422	0.999774						
04792														1.288098	-4.852398	8.378093	0.995825	-0.088397	0.022751	0.088547	0.996056	-0.005643	-0.022162	0.007634	0.999725						
04793														1.360099	-4.946570	8.227844	0.995794	-0.088176	0.024905	0.088368	0.996065	-0.006687	-0.024217	0.008859	0.999667						
04794														1.746981	-4.856189	8.145035	0.995804	-0.087751	0.025946	0.087976	0.996093	-0.007647	-0.025173	0.009898	0.999634						
04795														1.755913	-4.652037	8.397876	0.995887	-0.087063	0.025070	0.087297	0.996147	-0.008407	-0.024241	0.010561	0.999650						
04796														1.853582	-4.367478	8.595367	0.996023	-0.086172	0.022621	0.086411	0.996211	-0.009828	-0.021688	0.011744	0.999696						
04797														1.502275	-4.834278	8.633206	0.996156	-0.085368	0.019636	0.085633	0.996241	-0.013091	-0.018445	0.014722	0.999721						
04798														1.605286	-5.207221	8.470233	0.996262	-0.084747	0.016758	0.085041	0.996219	-0.017742	-0.015191	0.019100	0.999702						
04799														2.340138	-4.907841	8.663400	0.996371	-0.084215	0.012362	0.084496	0.996127	-0.024322	-0.010266	0.025279	0.999628						
04800														2.832237	-3.949674	9.358524	0.996575	-0.082651	0.002763	0.082697	0.995956	-0.035104	0.000150	0.035212	0.999380						
04801														1.574011	-3.590129	10.234127	0.997041	-0.076488	-0.007612	0.075913	0.995388	-0.058655	0.012064	0.057904	0.998249						
04802														2.167485	-3.803509	11.321520	0.997834	-0.064255	-0.014062	0.062513	0.992909	-0.101117	0.020460	0.100019	0.994775						
04803														1.884713	-3.802478	11.713212	0.998232	-0.050518	-0.031310	0.044648	0.985117	-0.165984	0.039229	0.164292	0.985631						
04804														1.345885	-5.161883	11.766630	0.997848	-0.038004	-0.053434	0.023614	0.968506	-0.247868	0.061171	0.246073	0.967319						
04805														3.894574	-6.423966	10.301682	0.996428	-0.026511	-0.080180	-0.002140	0.941214	-0.337803	0.084422	0.336768	0.937795						
04806														9.673127	-7.807933	10.456803	0.990142	-0.041032	-0.133921	-0.018854	0.908382	-0.417716	0.138791	0.416123	0.898654						
04807														1.721195	-5.908737	13.761259	0.986823	-0.066688	-0.147421	-0.008316	0.889006	-0.457819	0.161590	0.453012	0.876737						
04808														5.053499	1.027295	9.090340	0.987686	-0.077247	-0.136046	0.003772	0.881104	-0.472907	0.156401	0.466570	0.870546						
04809														0.313243	0.211845	9.821120	0.989434	-0.072363	-0.125633	0.005348	0.884163	-0.467148	0.144884	0.461540	0.875208						
04810														1.108157	0.191375	8.533493	0.990784	-0.062118	-0.120370	0.002802	0.897856	-0.440280	0.135424	0.435885	0.889756						
04811														0.718274	-0.867032	8.486324	0.992645	-0.051520	-0.109553	0.003787	0.917700	-0.397256	0.121004	0.393919	0.911145						
04812														1.358904	-1.883517	8.058762	0.994803	-0.043554	-0.092033	0.009545	0.939804	-0.341582	0.101370	0.338928	0.935335						
04813														2.182273	-3.832998	8.436315	0.996839	-0.041223	-0.067922	0.020801	0.960461	-0.277636	0.076681	0.275345	0.958282						
04814														2.335352	-5.291042	8.499721	0.998209	-0.048607	-0.034871	0.040377	0.977554	-0.206780	0.044139	0.205002	0.977766						
04815														1.852426	-6.821585	8.073951	0.997727	-0.067253	0.004136	0.067194	0.988547	-0.135132	0.004999	0.135103	0.990819						
04816														1.186078	-9.089047	8.080693	0.994963	-0.090828	0.042409	0.093474	0.993482	-0.065239	-0.036207	0.068874	0.996968						
04817														-0.257467	-10.488899	6.525818	0.991090	-0.110037	0.075050	0.110643	0.993852	-0.003951	-0.074154	0.012219	0.997172						
04818														-1.913450	-13.891800	4.956707	0.987079	-0.118256	0.108118	0.114713	0.992654	0.038451	-0.111871	-0.025552	0.993394						
04819														-2.318902	-16.016297	2.057194	0.981885	-0.119823	0.146783	0.111624	0.991757	0.062908	-0.153111	-0.045384	0.987166						
04820														0.024887	-19.350358	-4.298672	0.982735	-0.118415	0.142157	0.112715	0.992490	0.047529	-0.146718	-0.030685	0.988702						
04821														-3.320734	-28.310627	1.532267	0.991291	-0.105318	0.079063	0.103939	0.994354	0.021370	-0.080868	-0.012966	0.996641						
04822														-2.138314	-3.305704	11.293495	0.993377	-0.108608	0.037514	0.108081	0.994016	0.015817	-0.039007	-0.011658	0.999171						
04823														1.847775	-4.753944	12.228027	0.994078	-0.106513	0.021525	0.106495	0.994311	0.001988	-0.021614	0.000316	0.999766						
04824														0.330456	-5.574000	9.149313	0.994265	-0.106229	0.012339	0.106291	0.994325	-0.004455	-0.011796	0.005741	0.999914						
04825														0.190928	-7.872309	7.343075	0.994299	-0.106259	0.008868	0.106325	0.994304	-0.007325	-0.008039	0.008226	0.999934						
04826														0.597542	-5.961348	8.212687	0.994287	-0.106444	0.007890	0.106517	0.994266	-0.009442	-0.006840	0.010228	0.999924						
04827														1.673409	-4.029647	9.131198	0.994252	-0.106737	0.008336	0.106829	0.994210	-0.011561	-0.007054	0.012385	0.999898						
04828														1.412373	-4.706128	8.710946	0.994177	-0.107328	0.009641	0.107452	0.994121	-0.013335	-0.008153	0.014293	0.999865						
04829														1.087691	-5.732330	8.094230	0.994095	-0.107943	0.011132	0.108103	0.994027	-0.014971	-0.009450	0.016086	0.999826						
04830														1.145481	-5.156359	8.404494	0.994030	-0.108341	0.012916	0.108549	0.993951	-0.016684	-0.011030	0.017986	0.999777						
04831														1.612461	-4.493461	8.713064	0.993989	-0.108448	0.014975	0.108720	0.993895	-0.018776	-0.012847	0.020291	0.999712						
04832														1.621141	-4.918983	8.350514	0.993952	-0.108558	0.016577	0.108891	0.993838	-0.020725	-0.014225	0.022405	0.999648						
04833														1.287355	-5.181893	8.247357	0.993963	-0.108277	0.017687	0.108670	0.993812	-0.022987	-0.015089	0.024770	0.999579						
04834														1.478781	-4.909231	8.276548	0.994011	-0.107702	0.018511	0.108150	0.993815	-0.025208	-0.015682	0.027059	0.999511						
04835														1.514086	-4.829059	8.284578	0.994091	-0.106935	0.018634	0.107414	0.993848	-0.026992	-0.015633	0.028834	0.999462						
04836														1.379063	-5.064090	8.194748	0.994173	-0.106238	0.018257	0.106725	0.993891	-0.028128	-0.015158	0.029913	0.999438						
04837														1.271488	-5.277102	8.088941	0.994238	-0.105738	0.017645	0.106210	0.993937	-0.028443	-0.014531	0.030153	0.999440						
04838														1.259018	-5.186281	8.246461	0.994283	-0.105396	0.017131	0.105847	0.993989	-0.027965	-0.014081	0.029619	0.999462						
04839														1.304075	-4.991780	8.336156	0.994300	-0.105252	0.017033	0.105687	0.994033	-0.027007	-0.014089	0.028654	0.999490						
04840														1.341012	-4.917663	8.412846	0.994301	-0.105231	0.017095	0.105661	0.994047	-0.026585	-0.014196	0.028240	0.999500						
04841														1.431705	-4.995657	8.372762	0.994319	-0.105086	0.016961	0.105518	0.994050	-0.027040	-0.014018	0.028676	0.999490						
04842														1.394881	-5.104460	8.274914	0.994349	-0.104850	0.016612	0.105282	0.994055	-0.027764	-0.013602	0.029356	0.999476						
04843														1.209184	-5.157081	8.229807	0.994384	-0.104588	0.016209	0.105018	0.994064	-0.028419	-0.013140	0.029962	0.999465						
04844														1.466389	-4.909398	8.283897	0.994417	-0.104364	0.015560	0.104778	0.994079	-0.028767	-0.012465	0.030236	0.999465						
04845														1.441632	-4.936040	8.304867	0.994496	-0.103847	0.013899	0.104213	0.994136	-0.028864	-0.010820	0.030154	0.999487						
04846														1.509615	-4.924641	8.433585	0.994580	-0.103293	0.011895	0.103605	0.994180	-0.029535	-0.008776	0.030607	0.999493						
04847														1.553484	-4.858016	8.723072	0.994651	-0.102846	0.009554	0.103104	0.994149	-0.032204	-0.006186	0.033017	0.999436						
04848														2.473035	-4.554504	8.953916	0.994747	-0.102238	0.005048	0.102356	0.994012	-0.038250	-0.001107	0.038566	0.999255						
04849														1.681555	-4.389522	9.407340	0.995005	-0.099791	-0.002808	0.099510	0.993674	-0.052050	0.007985	0.051511	0.998641						
04850														1.613741	-4.248219	9.994979	0.995534	-0.094112	-0.007458	0.093258	0.992633	-0.077353	0.014683	0.076312	0.996976						
04851														2.473843	-3.304503	11.775720	0.996507	-0.082618	-0.012202	0.080538	0.989341	-0.121321	0.022096	0.119915	0.992538						
04852														2.201743	-3.679942	11.827265	0.997113	-0.071877	-0.024472	0.065971	0.979679	-0.189411	0.037589	0.187250	0.981593						
04853														1.878257	-5.391990	11.269849	0.997013	-0.062068	-0.045970	0.047273	0.961042	-0.272331	0.061082	0.269344	0.961105						
04854														2.604754	-7.060589	10.316183	0.996695	-0.046389	-0.066684	0.019101	0.931725	-0.362663	0.078955	0.360190	0.929532						
04855														8.498226	-7.990468	13.110019	0.993590	-0.050939	-0.100914	0.001631	0.899084	-0.437773	0.113030	0.434802	0.893404						
04856														2.978757	-2.012514	13.052968	0.992528	-0.058704	-0.106971	0.003059	0.888364	-0.459129	0.121982	0.455371	0.881906						
04857														2.880955	0.738262	9.850849	0.992320	-0.054279	-0.111152	-0.003688	0.885201	-0.465195	0.123642	0.462032	0.878202						
04858														1.515254	1.041917	9.097995	0.992703	-0.039961	-0.113774	-0.015295	0.894153	-0.447500	0.119614	0.445975	0.887017						
04859														1.506096	0.101096	8.191391	0.993143	-0.024415	-0.114331	-0.025426	0.909432	-0.415074	0.114110	0.415135	0.902575						
04860														1.573223	-1.473723	8.367743	0.994301	-0.011572	-0.105977	-0.028677	0.928417	-0.370432	0.102678	0.371360	0.922794						
04861														1.929665	-2.834365	8.312960	0.996156	-0.002698	-0.087555	-0.025194	0.948466	-0.315876	0.083895	0.316868	0.944752						
04862														2.209489	-4.422998	8.313276	0.998059	-0.000156	-0.062281	-0.015826	0.966538	-0.256036	0.060237	0.256525	0.964659						
04863														2.478141	-6.444605	8.455419	0.999496	-0.006899	-0.030984	0.000763	0.981035	-0.193828	0.031734	0.193707	0.980546						
04864														2.049830	-8.537208	8.010877	0.999691	-0.024813	0.001362	0.024778	0.991085	-0.130907	0.001899	0.130900	0.991394						
04865														0.663088	-10.403208	7.392937	0.998519	-0.044534	0.031238	0.046530	0.996708	-0.066390	-0.028178	0.067746	0.997305						
04866														-0.155284	-11.126118	5.654602	0.996740	-0.058464	0.055592	0.059112	0.998200	-0.010092	-0.054902	0.013346	0.998403						
04867														-1.524028	-13.289813	4.845835	0.994887	-0.065539	0.076847	0.063124	0.997445	0.033447	-0.078843	-0.028425	0.996482						
04868														-1.239915	-13.839834	2.699922	0.992560	-0.069153	0.100209	0.063159	0.996088	0.061806	-0.104092	-0.055017	0.993045						
04869														-0.474790	-14.932775	1.564141	0.990160	-0.076016	0.117495	0.067991	0.995166	0.070871	-0.122314	-0.062185	0.990541						
04870														-0.855594	-15.025386	1.451243	0.987185	-0.085164	0.134955	0.076861	0.994882	0.065594	-0.139851	-0.054381	0.988678						
04871														3.594228	-13.246793	-0.602219	0.986269	-0.101169	0.130528	0.096256	0.994409	0.043431	-0.134192	-0.030271	0.990493						
04872														-1.669874	-11.991419	11.472031	0.991425	-0.115036	0.062002	0.113918	0.993262	0.021283	-0.064032	-0.014038	0.997849						
04873														-5.862121	-2.524613	12.468313	0.993257	-0.112564	0.027762	0.112231	0.993593	0.013293	-0.029080	-0.010088	0.999526						
04874														3.334238	-6.661349	10.752482	0.993514	-0.112903	0.013510	0.112801	0.993585	0.008060	-0.014334	-0.006484	0.999876						
04875														-1.394069	-7.123394	8.511471	0.993539	-0.113236	0.007557	0.113189	0.993553	0.006365	-0.008229	-0.005468	0.999951						
04876														-0.611680	-6.423108	8.073943	0.993488	-0.113509	0.009829	0.113466	0.993530	0.004792	-0.010309	-0.003645	0.999940						
04877														1.513060	-4.735048	8.601146	0.993400	-0.113768	0.014602	0.113720	0.993504	0.004116	-0.014976	-0.002428	0.999885						
04878														2.065991	-4.162118	8.812116	0.993289	-0.114104	0.018898	0.114052	0.993467	0.003821	-0.019210	-0.001640	0.999814						
04879														1.884067	-4.698218	8.477411	0.993180	-0.114461	0.022181	0.114425	0.993428	0.002907	-0.022368	-0.000349	0.999750						
04880														1.649364	-5.125107	8.253810	0.993100	-0.114774	0.024073	0.114773	0.993391	0.001458	-0.024081	0.001315	0.999709						
04881														1.585395	-4.665022	8.534139	0.993050	-0.114948	0.025266	0.114993	0.993366	-0.000346	-0.025059	0.003249	0.999681						
04882														1.624553	-4.538893	8.626209	0.993021	-0.114982	0.026243	0.115092	0.993351	-0.002728	-0.025755	0.005729	0.999652						
04883														1.442231	-4.870799	8.362247	0.993013	-0.114872	0.027010	0.115060	0.993343	-0.005493	-0.026199	0.008563	0.999620						
04884														1.404256	-4.917223	8.352227	0.993008	-0.114717	0.027829	0.114987	0.993332	-0.008316	-0.026690	0.011458	0.999578						
04885														1.576066	-4.856290	8.333916	0.993003	-0.114611	0.028453	0.114957	0.993311	-0.010840	-0.027020	0.014035	0.999536						
04886														1.488729	-4.798078	8.340536	0.992998	-0.114554	0.028859	0.114962	0.993286	-0.012912	-0.027186	0.016139	0.999500						
04887														1.454179	-4.910227	8.301721	0.992983	-0.114564	0.029322	0.115036	0.993249	-0.014923	-0.027415	0.018191	0.999459						
04888														1.228681	-5.094798	8.254333	0.992961	-0.114555	0.030080	0.115095	0.993211	-0.016880	-0.027942	0.020223	0.999405						
04889														1.597674	-4.881252	8.346408	0.992936	-0.114568	0.030863	0.115180	0.993166	-0.018834	-0.028494	0.022255	0.999346						
04890														1.509911	-4.867736	8.380199	0.992919	-0.114556	0.031459	0.115251	0.993110	-0.021220	-0.028811	0.024696	0.999280						
04891														1.564791	-5.067876	8.263079	0.992919	-0.114439	0.031863	0.115220	0.993054	-0.023852	-0.028912	0.027355	0.999208						
04892														1.561272	-5.013550	8.274977	0.992952	-0.114204	0.031695	0.115053	0.993008	-0.026417	-0.028456	0.029878	0.999148						
04893														1.404369	-5.117536	8.237161	0.992997	-0.113917	0.031298	0.114818	0.992972	-0.028678	-0.027811	0.032071	0.999099						
04894														1.745715	-4.980950	8.219058	0.993046	-0.113661	0.030680	0.114603	0.992930	-0.030921	-0.026948	0.034222	0.999051						
04895														1.660989	-4.742587	8.380378	0.993143	-0.113262	0.028969	0.114214	0.992887	-0.033620	-0.024956	0.036698	0.999015						
04896														1.209387	-4.950264	8.462999	0.993235	-0.112763	0.027733	0.113755	0.992810	-0.037246	-0.023334	0.040149	0.998921						
04897														1.697625	-5.186006	8.225797	0.993382	-0.111848	0.026120	0.112876	0.992725	-0.041913	-0.021242	0.044584	0.998780						
04898														1.753597	-4.999726	8.332950	0.993633	-0.110319	0.022858	0.111309	0.992631	-0.047903	-0.017405	0.050142	0.998590						
04899														1.482182	-4.719736	8.721722	0.993960	-0.108221	0.018194	0.109096	0.992390	-0.057096	-0.011877	0.058736	0.998203						
04900														1.010773	-5.080936	8.561100	0.994265	-0.105910	0.014810	0.106690	0.991850	-0.069644	-0.007313	0.070825	0.997462						
04901														1.220292	-5.529596	8.122279	0.994530	-0.103660	0.012819	0.104374	0.990972	-0.084144	-0.003981	0.085022	0.996371						
04902														1.515618	-5.529683	8.080789	0.994831	-0.100939	0.011081	0.101541	0.989845	-0.099475	-0.000927	0.100086	0.994978						
04903														1.415172	-5.569820	8.349717	0.995227	-0.097126	0.009470	0.097568	0.988455	-0.115919	0.001898	0.116290	0.993213						
04904														1.184071	-5.449134	9.447791	0.995790	-0.090890	0.011878	0.091657	0.985822	-0.140548	0.001065	0.141045	0.990003						
04905														2.428039	-4.808334	10.177478	0.996501	-0.082213	0.015076	0.083584	0.979966	-0.180777	0.000089	0.181405	0.983409						
04906														4.386287	-3.537532	11.065444	0.997476	-0.070561	0.007953	0.070436	0.969039	-0.236647	0.008991	0.236610	0.971563						
04907														3.582305	-5.309271	12.417635	0.998357	-0.055726	-0.013365	0.048828	0.949282	-0.310612	0.029997	0.309449	0.950443						
04908														3.311225	-8.002241	10.814652	0.998536	-0.038517	-0.037978	0.020464	0.918921	-0.393910	0.050071	0.392557	0.918364						
04909														6.522874	-8.271540	12.289044	0.997124	-0.026924	-0.070850	-0.009475	0.883165	-0.468967	0.075199	0.468290	0.880369						
04910														5.939075	-6.125506	13.853116	0.994067	-0.038615	-0.101688	-0.016537	0.870347	-0.492161	0.107509	0.490923	0.864544						
04911														3.092924	-2.623090	10.761592	0.991116	-0.030609	-0.129427	-0.038298	0.866250	-0.498141	0.127363	0.498673	0.857382						
04912														3.249803	-1.424274	8.220905	0.987643	-0.012804	-0.156197	-0.065623	0.871291	-0.486360	0.142320	0.490600	0.859684						
04913														3.002816	-1.480937	7.243313	0.985940	0.009325	-0.166841	-0.087368	0.879864	-0.467125	0.142441	0.475133	0.868308						
04914														1.950901	-1.758601	7.456929	0.987051	0.024161	-0.158577	-0.092834	0.892249	-0.441897	0.130814	0.450897	0.882938						
04915														1.046717	-2.391999	7.775322	0.989935	0.031135	-0.138058	-0.085972	0.907182	-0.411861	0.112421	0.419585	0.900728						
04916														0.132384	-3.408895	8.479928	0.993188	0.035527	-0.110975	-0.074847	0.924440	-0.373910	0.089306	0.379669	0.920802						
04917														0.212260	-4.428918	9.138426	0.995806	0.039170	-0.082686	-0.064191	0.943078	-0.326318	0.065197	0.330257	0.941637						
04918														-0.079457	-4.830083	9.441373	0.997316	0.044458	-0.058181	-0.058536	0.961432	-0.268742	0.043989	0.271426	0.961453						
04919														0.842316	-5.379797	9.492840	0.998180	0.049554	-0.034362	-0.055548	0.977367	-0.204127	0.023469	0.205664	0.978341						
04920														1.357196	-5.640772	9.464286	0.998806	0.048034	-0.008899	-0.048798	0.989572	-0.135523	0.002297	0.135795	0.990734						
04921														1.576537	-5.410113	9.434365	0.999051	0.040138	0.016925	-0.038938	0.997055	-0.066070	-0.019527	0.065349	0.997671						
04922														1.695250	-5.548556	9.651410	0.998835	0.029053	0.038530	-0.029088	0.999577	0.000337	-0.038503	-0.001457	0.999257						
04923														1.536011	-6.258425	10.021177	0.998281	0.018082	0.055755	-0.021468	0.997922	0.060750	-0.054541	-0.061843	0.996595						
04924														1.139040	-9.613179	11.686405	0.996961	0.009747	0.077293	-0.019375	0.991991	0.124816	-0.075457	-0.125934	0.989165						
04925														1.119050	-9.038292	10.288710	0.994399	0.002888	0.105648	-0.023453	0.980733	0.193941	-0.103053	-0.195333	0.975308						
04926														1.570177	-8.797997	8.806427	0.991180	-0.012463	0.131934	-0.021226	0.967784	0.250885	-0.130810	-0.251473	0.958984						
04927														1.376389	-12.121327	7.198249	0.987923	-0.042201	0.149090	-0.002631	0.957490	0.288454	-0.154925	-0.285363	0.945815						
04928														0.655319	-16.398648	2.808463	0.985028	-0.085720	0.149576	0.034604	0.948274	0.315560	-0.168889	-0.305659	0.937043						
04929														-5.355469	-19.054262	-2.790075	0.981224	-0.123107	0.148471	0.067897	0.940999	0.331529	-0.180524	-0.315223	0.931689						
04930														-7.063010	-15.178930	-4.805952	0.975317	-0.137796	0.172536	0.077701	0.945585	0.315963	-0.206686	-0.294758	0.932952						
04931														-1.112375	-12.317111	-1.231872	0.974910	-0.138234	0.174474	0.088763	0.960214	0.264783	-0.204134	-0.242653	0.948393						
04932														-1.067337	-13.620037	4.499383	0.978281	-0.133730	0.158376	0.100755	0.974501	0.200490	-0.181150	-0.180179	0.966809						
04933														-0.147447	-12.357218	7.952692	0.980186	-0.128981	0.150333	0.107839	0.984091	0.141195	-0.166153	-0.122186	0.978501						
04934														0.838691	-9.137287	9.196341	0.980985	-0.122955	0.150171	0.111843	0.990471	0.080360	-0.158621	-0.062036	0.985389						
04935														0.897640	-7.129674	10.803685	0.980475	-0.115048	0.159478	0.113782	0.993359	0.017077	-0.160384	0.001402	0.987054						
04936														20.860933	-8.373917	20.498671	0.983251	-0.134267	0.123245	0.136644	0.990559	-0.011001	-0.120605	0.027658	0.992315						
04937														5.210734	28.551617	19.382732	0.984994	-0.156264	0.073263	0.154277	0.987507	0.032078	-0.077360	-0.020293	0.996797						
04938														-1.347367	-8.243810	14.802259	0.987316	-0.152851	0.042943	0.152705	0.988249	0.006687	-0.043460	-0.000044	0.999055						
04939														-0.734457	-9.209981	7.723264	0.987879	-0.152080	0.031101	0.152321	0.988315	-0.005542	-0.029895	0.010212	0.999501						
04940														-0.614331	-8.850621	6.641763	0.987922	-0.152436	0.027800	0.152671	0.988256	-0.006506	-0.026482	0.010672	0.999592						
04941														1.296207	-4.649471	9.033661	0.987821	-0.153266	0.026822	0.153477	0.988134	-0.005978	-0.025587	0.010021	0.999622						
04942														1.760261	-3.270793	9.732960	0.987638	-0.154191	0.028227	0.154442	0.987977	-0.006935	-0.026818	0.011209	0.999577						
04943														1.717847	-5.204487	8.280461	0.987424	-0.155064	0.030805	0.155406	0.987809	-0.009024	-0.029030	0.013698	0.999485						
04944														1.385237	-6.044345	7.908262	0.987304	-0.155552	0.032171	0.155976	0.987699	-0.011088	-0.030050	0.015965	0.999421						
04945														1.715253	-4.715960	8.488126	0.987181	-0.156052	0.033481	0.156549	0.987588	-0.012764	-0.031073	0.017842	0.999358						
04946														1.707882	-4.410363	8.730290	0.987033	-0.156623	0.035143	0.157200	0.987464	-0.014276	-0.032467	0.019615	0.999280						
04947														1.378864	-5.033247	8.286842	0.986913	-0.156946	0.037011	0.157618	0.987371	-0.015964	-0.034038	0.021588	0.999187						
04948														1.174452	-4.836989	8.398745	0.986755	-0.157194	0.040063	0.158023	0.987264	-0.018418	-0.036658	0.024505	0.999027						
04949														1.991347	-4.613816	8.362572	0.986659	-0.157127	0.042604	0.158116	0.987199	-0.020907	-0.038774	0.027365	0.998873						
04950														1.759330	-4.758446	8.268472	0.986683	-0.156625	0.043886	0.157733	0.987213	-0.023030	-0.039718	0.029646	0.998771						
04951														1.669574	-5.115124	8.138844	0.986736	-0.156023	0.044823	0.157246	0.987238	-0.025197	-0.040320	0.031911	0.998677						
04952														1.625538	-5.333546	8.047280	0.986775	-0.155683	0.045153	0.156967	0.987251	-0.026413	-0.040465	0.033151	0.998631						
04953														1.565192	-5.142170	8.238705	0.986791	-0.155541	0.045291	0.156850	0.987256	-0.026915	-0.040527	0.033663	0.998611						
04954														1.749859	-5.091165	8.248116	0.986810	-0.155482	0.045062	0.156775	0.987273	-0.026712	-0.040336	0.033424	0.998627						
04955														1.607417	-5.110689	8.186402	0.986870	-0.155284	0.044443	0.156532	0.987327	-0.026118	-0.039824	0.032731	0.998670						
04956														1.558116	-4.940769	8.335540	0.986919	-0.155081	0.044044	0.156300	0.987376	-0.025690	-0.039504	0.032238	0.998699						
04957														1.450950	-4.865334	8.385587	0.986949	-0.154829	0.044265	0.156064	0.987407	-0.025931	-0.039693	0.032501	0.998683						
04958														1.582868	-4.947512	8.272477	0.986982	-0.154425	0.044940	0.155723	0.987433	-0.026962	-0.040211	0.033609	0.998626						
04959														1.697119	-4.978621	8.204229	0.987061	-0.153828	0.045237	0.155197	0.987473	-0.028470	-0.040291	0.035122	0.998571						
04960														1.760883	-4.916083	8.225615	0.987232	-0.152972	0.044408	0.154366	0.987562	-0.029870	-0.039286	0.036344	0.998567						
04961														1.724481	-4.841272	8.289503	0.987459	-0.151936	0.042909	0.153325	0.987684	-0.031175	-0.037644	0.037363	0.998593						
04962														1.474147	-5.061527	8.366556	0.987689	-0.150825	0.041496	0.152238	0.987783	-0.033284	-0.035969	0.039191	0.998584						
04963														1.570356	-5.204186	8.163121	0.987897	-0.149668	0.040740	0.151133	0.987872	-0.035610	-0.034917	0.041336	0.998535						
04964														1.689260	-5.042263	8.283509	0.988147	-0.148298	0.039656	0.149822	0.987956	-0.038674	-0.033443	0.044157	0.998465						
04965														2.000146	-4.771868	8.480084	0.988468	-0.146549	0.038135	0.148137	0.988039	-0.042825	-0.031403	0.047980	0.998355						
04966														2.139563	-4.392434	9.004940	0.989161	-0.142485	0.035474	0.144168	0.988261	-0.050556	-0.027854	0.055122	0.998091						
04967														2.288372	-4.470356	9.566368	0.989997	-0.137642	0.030992	0.139453	0.987969	-0.066862	-0.021416	0.070515	0.997281						
04968														1.877156	-4.523121	10.106152	0.990963	-0.131444	0.026750	0.133436	0.986352	-0.096464	-0.013705	0.099162	0.994977						
04969														1.931231	-3.592817	11.060681	0.992761	-0.116209	0.030350	0.119415	0.982098	-0.145684	-0.012877	0.148253	0.988866						
04970														2.689473	-3.084571	11.575980	0.994220	-0.104852	0.023098	0.107366	0.970102	-0.217655	0.000415	0.218877	0.975752						
04971														4.459820	-5.856719	11.129641	0.995191	-0.097955	-0.000654	0.093029	0.947199	-0.306854	0.030678	0.305317	0.951756						
04972														3.089342	-7.289251	11.024412	0.995459	-0.089535	-0.032331	0.069025	0.912789	-0.402557	0.065554	0.398497	0.914824						
04973														4.698698	-9.462802	10.230432	0.994706	-0.080279	-0.064145	0.038691	0.870886	-0.489959	0.095196	0.484883	0.869382						
04974														7.818456	-8.276391	13.755965	0.990884	-0.093736	-0.096762	0.028425	0.847550	-0.529954	0.131686	0.522372	0.842488						
04975														3.382136	-0.610629	9.482086	0.988009	-0.094912	-0.121778	0.014521	0.842364	-0.538713	0.153712	0.530485	0.833642						
04976														4.053080	-1.468760	9.015802	0.986461	-0.082057	-0.141987	-0.005774	0.847895	-0.530133	0.163891	0.523776	0.835942						
04977														2.802325	-1.035899	7.520962	0.987045	-0.065170	-0.146612	-0.018778	0.860588	-0.508956	0.159341	0.505116	0.848215						
04978														2.229915	-1.400048	7.249936	0.989459	-0.048399	-0.136486	-0.022624	0.879259	-0.475806	0.143035	0.473878	0.868896						
04979														1.966673	-2.616203	7.346043	0.992777	-0.032008	-0.115627	-0.020854	0.903049	-0.429030	0.118149	0.428343	0.895859						
04980														1.270501	-3.812415	7.048128	0.996056	-0.021374	-0.086112	-0.012117	0.928684	-0.370673	0.087894	0.370255	0.924763						
04981														0.450066	-5.189451	6.349470	0.998746	-0.019905	-0.045947	0.004798	0.951411	-0.307885	0.049843	0.307278	0.950313						
04982														-0.907468	-7.255901	6.024326	0.999423	-0.033947	0.000730	0.033082	0.968639	-0.246260	0.007653	0.246142	0.969203						
04983														-2.165122	-9.708562	5.991449	0.997320	-0.056786	0.046126	0.064423	0.980455	-0.185895	-0.034668	0.188368	0.981486						
04984														-2.495492	-11.248830	5.842888	0.994210	-0.073863	0.078048	0.083361	0.988467	-0.126427	-0.067810	0.132202	0.988901						
04985														-1.910169	-13.258541	5.498448	0.991763	-0.085964	0.094955	0.092737	0.993271	-0.069369	-0.088353	0.077603	0.993062						
04986														-0.858311	-13.603771	3.850761	0.989688	-0.097712	0.104740	0.100198	0.994791	-0.018729	-0.102364	0.029030	0.994323						
04987														0.215636	-13.970972	2.600828	0.987675	-0.110197	0.111155	0.108794	0.993890	0.018626	-0.112528	-0.006303	0.993629						
04988														0.463849	-13.620631	2.242460	0.985611	-0.118706	0.120331	0.114393	0.992540	0.042163	-0.124438	-0.027791	0.991838						
04989														0.006606	-12.145872	2.368778	0.984189	-0.119417	0.130812	0.113824	0.992269	0.049453	-0.135706	-0.033781	0.990173						
04990														2.935908	-10.583895	3.429555	0.984041	-0.112185	0.138121	0.107318	0.993328	0.042215	-0.141935	-0.026719	0.989515						
04991														2.695410	-11.506482	9.443869	0.991752	-0.111196	0.063738	0.109635	0.993592	0.027494	-0.066387	-0.020279	0.997588						
04992														-7.030942	-3.359715	13.667437	0.993426	-0.109955	0.031861	0.109322	0.993785	0.020975	-0.033969	-0.017354	0.999272						
04993														5.543973	-4.525506	10.117782	0.993928	-0.108135	0.020340	0.108074	0.994135	0.004074	-0.020661	-0.001851	0.999785						
04994														-1.153921	-5.725387	9.105682	0.994250	-0.106407	0.011996	0.106480	0.994299	-0.005671	-0.011324	0.006916	0.999912						
04995														1.218918	-6.958514	7.330757	0.994431	-0.105103	0.007755	0.105185	0.994391	-0.011060	-0.006549	0.011814	0.999909						
04996														0.333462	-6.049550	8.140625	0.994500	-0.104590	0.005521	0.104656	0.994416	-0.013550	-0.004073	0.014054	0.999893						
04997														1.406125	-5.018986	8.597927	0.994483	-0.104773	0.005045	0.104834	0.994392	-0.013908	-0.003559	0.014360	0.999891						
04998														1.066916	-5.084122	8.557664	0.994393	-0.105576	0.006084	0.105652	0.994307	-0.013819	-0.004590	0.014384	0.999886						
04999														1.271716	-5.175022	8.378283	0.994264	-0.106669	0.007792	0.106771	0.994183	-0.014170	-0.006235	0.014921	0.999869						
05000														0.970487	-4.940473	8.478150	0.994171	-0.107353	0.009985	0.107494	0.994095	-0.014853	-0.008332	0.015840	0.999840						
