// General information: 
//  MT Manager version: 2022.2.0 
//  XDA version: 2022.2.0 build 7381 rev 124627 built on 2023-07-19
// Device information: 
//  DeviceId: 00B4D4CB
//  ProductCode: MTW2-3A7G6
//  Firmware Version: 4.6.0
//  Hardware Version: 2.0.0
// Device settings: 
//  Filter Profile: human(46.1)
//  Option Flags: Orientation Smoother Disabled, Position/Velocity Smoother Disabled, Continuous Zero Rotation Update Disabled, AHS Disabled, ICC Disabled
// Coordinate system: ENU
PacketCounter	SampleTimeFine	Year	Month	Day	Second	UTC_Nano	UTC_Year	UTC_Month	UTC_Day	UTC_Hour	UTC_Minute	UTC_Second	UTC_Valid	Acc_X	Acc_Y	Acc_Z	Mat[1][1]	Mat[2][1]	Mat[3][1]	Mat[1][2]	Mat[2][2]	Mat[3][2]	Mat[1][3]	Mat[2][3]	Mat[3][3]	Latitude	Longitude	Altitude	Vel_E	Vel_N	Vel_U
04221														-3.201327	-9.354774	-1.660571	0.999364	0.034840	0.007632	-0.034594	0.998942	-0.030306	-0.008680	0.030023	0.999512						
04222														-3.455025	-9.347195	-1.498327	0.999568	0.027700	0.009819	-0.027392	0.999169	-0.030168	-0.010647	0.029886	0.999497						
04223														-3.620806	-9.179450	-1.695856	0.999610	0.025326	0.011807	-0.024968	0.999253	-0.029489	-0.012545	0.029182	0.999495						
04224														-3.076425	-8.976810	-1.672394	0.999612	0.024514	0.013210	-0.024133	0.999310	-0.028246	-0.013893	0.027916	0.999514						
04225														-2.843652	-8.953057	-1.607862	0.999650	0.022549	0.013802	-0.022148	0.999348	-0.028524	-0.014436	0.028209	0.999498						
04226														-3.355320	-9.064380	-1.750374	0.999669	0.021239	0.014549	-0.020800	0.999344	-0.029656	-0.015169	0.029344	0.999454						
04227														-3.183923	-9.072416	-1.818993	0.999630	0.022831	0.014778	-0.022361	0.999261	-0.031248	-0.015481	0.030906	0.999402						
04228														-2.752364	-9.085807	-1.616355	0.999574	0.024980	0.015081	-0.024464	0.999141	-0.033462	-0.015904	0.033079	0.999326						
04229														-2.654883	-9.098528	-1.664495	0.999523	0.026776	0.015396	-0.026195	0.998980	-0.036790	-0.016365	0.036369	0.999204						
04230														-3.148724	-9.327947	-1.730055	0.999526	0.025839	0.016742	-0.025133	0.998840	-0.041062	-0.017783	0.040622	0.999016						
04231														-3.090246	-9.304471	-1.496893	0.999471	0.026364	0.019040	-0.025481	0.998654	-0.045183	-0.020206	0.044674	0.998797						
04232														-2.663483	-9.330282	-1.593735	0.999436	0.026169	0.021023	-0.025128	0.998514	-0.048349	-0.022257	0.047794	0.998609						
04233														-2.937827	-9.359711	-1.646547	0.999533	0.019915	0.023170	-0.018744	0.998587	-0.049718	-0.024127	0.049261	0.998495						
04234														-3.785670	-9.075594	-1.962295	0.999591	0.013098	0.025435	-0.011844	0.998735	-0.048865	-0.026043	0.048543	0.998481						
04235														-3.790991	-8.882050	-2.377315	0.999623	0.011682	0.024849	-0.010472	0.998778	-0.048295	-0.025383	0.048017	0.998524						
04236														-2.923837	-9.143106	-1.981021	0.999663	0.012175	0.022944	-0.011076	0.998813	-0.047438	-0.023494	0.047167	0.998611						
04237														-3.008468	-9.129237	-1.947635	0.999680	0.013732	0.021224	-0.012716	0.998800	-0.047291	-0.021848	0.047006	0.998656						
04238														-3.304454	-9.060025	-1.826726	0.999683	0.016149	0.019339	-0.015226	0.998780	-0.046968	-0.020074	0.046659	0.998709						
04239														-3.403499	-8.657721	-2.118711	0.999757	0.015173	0.015992	-0.014394	0.998755	-0.047761	-0.016697	0.047519	0.998731						
04240														-3.252412	-8.870398	-2.504886	0.999781	0.017533	0.011423	-0.016926	0.998548	-0.051150	-0.012303	0.050946	0.998626						
04241														-2.978833	-8.873753	-1.988686	0.999610	0.026887	0.007566	-0.026444	0.998211	-0.053615	-0.008994	0.053394	0.998533						
04242														-2.926614	-8.960493	-2.170491	0.999375	0.035148	0.003880	-0.034872	0.997782	-0.056697	-0.005864	0.056526	0.998384						
04243														-2.984261	-9.149295	-1.937767	0.999009	0.044508	0.000867	-0.044374	0.997176	-0.060586	-0.003561	0.060487	0.998163						
04244														-3.173249	-9.017502	-1.834578	0.998474	0.055226	-0.000785	-0.055163	0.996419	-0.064075	-0.002756	0.064021	0.997945						
04245														-2.854743	-9.036537	-1.924924	0.997909	0.064593	-0.002316	-0.064600	0.995562	-0.068429	-0.002115	0.068435	0.997653						
04246														-2.933560	-8.784523	-2.142129	0.997613	0.068935	-0.004143	-0.069052	0.994800	-0.074871	-0.001040	0.074978	0.997185						
04247														-3.497095	-8.829072	-2.134907	0.997066	0.076410	-0.004498	-0.076517	0.993513	-0.084120	-0.001959	0.084217	0.996445						
04248														-3.252187	-9.022285	-2.147371	0.996435	0.084160	-0.005819	-0.084336	0.992104	-0.092826	-0.002039	0.092985	0.995665						
04249														-2.834599	-8.806761	-1.954142	0.996243	0.086347	-0.006610	-0.086570	0.991014	-0.101961	-0.002253	0.102151	0.994766						
04250														-3.102209	-9.379577	-1.883558	0.995995	0.089290	-0.004616	-0.089252	0.989862	-0.110489	-0.005297	0.110458	0.993867						
04251														-3.285543	-9.180224	-2.229349	0.995654	0.093056	-0.003599	-0.092842	0.988871	-0.116250	-0.007258	0.116079	0.993214						
04252														-3.095955	-8.887606	-2.457885	0.995700	0.092595	-0.002597	-0.092224	0.988310	-0.121398	-0.008674	0.121115	0.992601						
04253														-3.326670	-8.881428	-2.411802	0.995851	0.091002	-0.000011	-0.090260	0.987714	-0.127572	-0.011598	0.127044	0.991829						
04254														-3.526089	-9.167397	-2.237407	0.995492	0.094804	0.002929	-0.093586	0.986791	-0.132230	-0.015427	0.131360	0.991215						
04255														-3.191678	-9.228145	-2.322426	0.995231	0.097445	0.004400	-0.095990	0.986398	-0.133435	-0.017343	0.132376	0.991048						
04256														-2.963156	-9.183930	-2.255298	0.995344	0.096147	0.006796	-0.094393	0.986595	-0.133115	-0.019504	0.131854	0.991077						
04257														-3.414093	-9.011741	-2.674355	0.995612	0.093161	0.008805	-0.091182	0.986985	-0.132462	-0.021031	0.131078	0.991149						
04258														-3.436716	-8.990160	-2.688521	0.995764	0.091341	0.010551	-0.089171	0.987295	-0.131520	-0.022430	0.130022	0.991257						
04259														-3.041910	-9.038403	-2.340782	0.995892	0.089646	0.012783	-0.087234	0.987652	-0.130132	-0.024291	0.128483	0.991414						
04260														-2.821982	-9.115405	-2.222665	0.996135	0.086631	0.014506	-0.084078	0.988206	-0.127982	-0.025422	0.126268	0.991670						
04261														-2.995075	-9.038454	-2.338912	0.996712	0.079280	0.016732	-0.076558	0.989074	-0.125982	-0.026537	0.124287	0.991891						
04262														-3.134749	-8.861290	-2.419729	0.997133	0.073302	0.018789	-0.070424	0.989778	-0.124018	-0.027688	0.122339	0.992102						
04263														-3.277953	-8.740157	-2.701679	0.997738	0.063999	0.020548	-0.061008	0.990551	-0.122831	-0.028215	0.121300	0.992215						
04264														-3.359328	-8.772870	-2.825836	0.998239	0.055178	0.021761	-0.052125	0.991152	-0.122067	-0.028304	0.120718	0.992283						
04265														-3.111934	-9.029556	-2.515775	0.998339	0.053068	0.022449	-0.050001	0.991489	-0.120208	-0.028637	0.118886	0.992495						
04266														-3.198696	-9.023989	-2.691961	0.998375	0.053050	0.020791	-0.050242	0.991749	-0.117942	-0.026876	0.116706	0.992803						
04267														-3.124228	-9.094472	-2.581363	0.998455	0.052608	0.017903	-0.050136	0.991736	-0.118090	-0.023967	0.117010	0.992841						
04268														-2.871253	-9.281944	-2.035298	0.998529	0.051770	0.016097	-0.049534	0.991864	-0.117268	-0.022037	0.116298	0.992970						
04269														-2.573793	-9.011698	-1.932818	0.998547	0.051368	0.016296	-0.049165	0.992167	-0.114835	-0.022067	0.113867	0.993251						
04270														-2.488113	-8.921889	-2.284817	0.998648	0.049001	0.017351	-0.046748	0.992556	-0.112457	-0.022732	0.111494	0.993505						
04271														-3.015877	-8.826971	-2.504297	0.998848	0.044010	0.019105	-0.041599	0.992822	-0.112136	-0.023903	0.111212	0.993509						
04272														-3.282722	-8.848622	-2.695661	0.998985	0.040073	0.020555	-0.037506	0.992900	-0.112887	-0.024932	0.112002	0.993395						
04273														-3.243038	-8.898986	-2.641715	0.998926	0.041280	0.021024	-0.038627	0.992738	-0.113924	-0.025575	0.112990	0.993267						
04274														-2.956403	-9.025235	-2.561727	0.998847	0.043020	0.021305	-0.040284	0.992498	-0.115433	-0.026111	0.114442	0.993087						
04275														-2.938411	-8.994640	-2.518475	0.998823	0.043236	0.021966	-0.040387	0.992333	-0.116807	-0.026847	0.115782	0.992912						
04276														-3.293285	-9.001622	-2.543860	0.998699	0.045320	0.023385	-0.042268	0.992153	-0.117667	-0.028534	0.116525	0.992778						
04277														-3.198529	-8.920747	-2.345209	0.998493	0.049149	0.024428	-0.045980	0.992105	-0.116675	-0.029970	0.115376	0.992870						
04278														-3.171362	-8.765298	-2.617669	0.998383	0.051659	0.023723	-0.048543	0.991936	-0.117073	-0.029579	0.115733	0.992840						
04279														-3.121545	-8.981727	-2.603205	0.998396	0.051850	0.022735	-0.048783	0.991656	-0.119329	-0.028732	0.118029	0.992594						
04280														-3.130116	-9.181850	-2.500385	0.998287	0.054181	0.022059	-0.051156	0.991448	-0.120062	-0.028376	0.118727	0.992521						
04281														-2.914366	-8.999823	-2.548298	0.998093	0.057804	0.021635	-0.054817	0.991300	-0.119661	-0.028364	0.118246	0.992579						
04282														-2.915599	-9.004819	-2.349789	0.997965	0.059884	0.021922	-0.056873	0.991284	-0.118834	-0.028847	0.117345	0.992672						
04283														-3.122718	-8.925931	-2.544813	0.997815	0.062391	0.021755	-0.059401	0.991210	-0.118210	-0.028939	0.116660	0.992750						
04284														-3.082512	-8.977463	-2.625254	0.997592	0.066086	0.021032	-0.063162	0.991004	-0.117990	-0.028641	0.116377	0.992792						
04285														-2.877997	-9.073437	-2.341898	0.997421	0.068765	0.020539	-0.065898	0.990898	-0.117380	-0.028424	0.115724	0.992875						
04286														-2.931126	-9.033595	-2.321475	0.997205	0.071876	0.020405	-0.069022	0.990761	-0.116741	-0.028608	0.115006	0.992953						
04287														-2.876547	-9.117582	-2.279433	0.997043	0.073934	0.020947	-0.071014	0.990655	-0.116444	-0.029360	0.114612	0.992976						
04288														-2.927088	-9.030469	-2.177924	0.996981	0.074430	0.022133	-0.071389	0.990696	-0.115869	-0.030551	0.113939	0.993018						
04289														-2.982227	-8.894204	-2.359435	0.996947	0.074541	0.023235	-0.071388	0.990752	-0.115384	-0.031621	0.113373	0.993049						
04290														-3.091132	-8.920025	-2.346756	0.996970	0.073898	0.024292	-0.070624	0.990786	-0.115565	-0.032608	0.113499	0.993003						
04291														-3.005832	-9.031095	-2.297959	0.997004	0.073114	0.025265	-0.069737	0.990859	-0.115482	-0.033477	0.113374	0.992988						
04292														-2.998467	-8.994206	-2.467387	0.997056	0.072104	0.026086	-0.068643	0.990943	-0.115410	-0.034171	0.113280	0.992975						
04293														-3.060647	-9.035930	-2.518347	0.997104	0.071079	0.027036	-0.067504	0.990982	-0.115752	-0.035020	0.113591	0.992910						
04294														-2.980330	-9.046712	-2.345370	0.997146	0.070132	0.027959	-0.066450	0.991028	-0.115969	-0.035841	0.113780	0.992859						
04295														-3.035650	-8.957367	-2.466570	0.997250	0.068550	0.028177	-0.064832	0.991068	-0.116540	-0.035914	0.114392	0.992786						
04296														-3.006589	-8.963031	-2.466048	0.997350	0.067124	0.028072	-0.063394	0.991051	-0.117470	-0.035706	0.115379	0.992680						
04297														-3.072261	-8.896003	-2.527036	0.997396	0.066655	0.027531	-0.062933	0.990888	-0.119084	-0.035218	0.117041	0.992502						
04298														-2.983322	-8.987792	-2.461882	0.997479	0.065621	0.027013	-0.061910	0.990754	-0.120719	-0.034685	0.118742	0.992319						
04299														-2.832469	-9.046955	-2.382892	0.997583	0.063986	0.027076	-0.060250	0.990759	-0.121515	-0.034601	0.119590	0.992220						
04300														-3.016419	-9.031765	-2.514866	0.997658	0.062623	0.027519	-0.058837	0.990825	-0.121675	-0.034886	0.119770	0.992188						
04301														-3.066990	-8.949286	-2.496773	0.997733	0.061062	0.028288	-0.057201	0.990941	-0.121511	-0.035451	0.119617	0.992187						
04302														-3.012160	-8.938532	-2.568770	0.997786	0.059976	0.028733	-0.056057	0.990967	-0.121829	-0.035781	0.119948	0.992135						
04303														-3.003833	-9.037434	-2.591872	0.997819	0.059284	0.029039	-0.055315	0.990944	-0.122353	-0.036030	0.120480	0.992062						
04304														-2.918325	-9.069277	-2.463673	0.997894	0.057783	0.029476	-0.053751	0.990959	-0.122928	-0.036313	0.121085	0.991978						
04305														-3.014654	-8.955672	-2.536216	0.997927	0.057025	0.029840	-0.052938	0.990948	-0.123370	-0.036605	0.121535	0.991912						
04306														-2.997162	-8.946724	-2.581965	0.997965	0.056440	0.029656	-0.052357	0.990907	-0.123943	-0.036381	0.122139	0.991846						
04307														-3.169945	-8.789254	-2.557848	0.997963	0.056691	0.029253	-0.052630	0.990803	-0.124656	-0.036051	0.122862	0.991769						
04308														-3.098324	-8.968218	-2.417450	0.997851	0.058864	0.028782	-0.054782	0.990465	-0.126405	-0.035948	0.124557	0.991561						
04309														-2.810680	-9.263277	-2.249051	0.997852	0.059291	0.027874	-0.055272	0.990268	-0.127730	-0.035176	0.125915	0.991417						
04310														-2.869203	-9.079606	-2.392650	0.997920	0.058307	0.027499	-0.054330	0.990270	-0.128118	-0.034701	0.126357	0.991378						
04311														-2.992311	-8.915227	-2.578547	0.997959	0.057747	0.027277	-0.053782	0.990228	-0.128669	-0.034440	0.126939	0.991312						
04312														-3.107415	-8.901160	-2.666798	0.997979	0.057771	0.026460	-0.053885	0.990124	-0.129429	-0.033676	0.127742	0.991236						
04313														-3.069203	-8.916562	-2.591389	0.997948	0.058725	0.025536	-0.054916	0.989934	-0.130442	-0.032939	0.128772	0.991127						
04314														-2.834335	-9.026845	-2.625708	0.997989	0.058467	0.024493	-0.054765	0.989820	-0.131366	-0.031924	0.129760	0.991031						
04315														-3.047122	-9.014023	-2.612867	0.997995	0.058766	0.023509	-0.055175	0.989739	-0.131805	-0.031014	0.130244	0.990997						
04316														-3.027195	-8.965625	-2.662877	0.997965	0.059610	0.022649	-0.056120	0.989666	-0.131954	-0.030281	0.130415	0.990997						
04317														-2.990184	-8.993096	-2.637421	0.997967	0.059955	0.021623	-0.056587	0.989601	-0.132243	-0.029327	0.130751	0.990981						
04318														-3.048064	-8.941011	-2.518620	0.997938	0.060805	0.020566	-0.057564	0.989526	-0.132379	-0.028400	0.130922	0.990986						
04319														-2.863255	-9.063466	-2.453986	0.997977	0.060279	0.020183	-0.057091	0.989541	-0.132471	-0.027958	0.131050	0.990981						
04320														-2.845748	-8.973499	-2.618142	0.998077	0.058732	0.019835	-0.055602	0.989626	-0.132470	-0.027410	0.131112	0.990989						
04321														-3.008441	-8.928491	-2.669359	0.998168	0.057253	0.019580	-0.054170	0.989714	-0.132405	-0.026959	0.131102	0.991002						
04322														-2.951810	-8.891690	-2.708705	0.998300	0.054874	0.019634	-0.051801	0.989821	-0.132557	-0.026708	0.131315	0.990981						
04323														-2.927147	-9.016450	-2.659190	0.998396	0.052991	0.019935	-0.049897	0.989933	-0.132447	-0.026752	0.131240	0.990990						
04324														-2.835222	-8.858962	-2.651315	0.998439	0.052090	0.020134	-0.048989	0.990032	-0.132050	-0.026811	0.130858	0.991039						
04325														-2.759559	-8.963350	-2.857177	0.998590	0.048758	0.020973	-0.045561	0.990130	-0.132540	-0.027228	0.131397	0.990956						
04326														-2.893500	-8.818664	-2.956799	0.998797	0.043831	0.021980	-0.040531	0.990288	-0.132992	-0.027595	0.131941	0.990873						
04327														-2.969812	-8.743464	-3.118676	0.998884	0.041713	0.022135	-0.038366	0.990160	-0.134576	-0.027531	0.133577	0.990656						
04328														-2.750183	-8.890075	-3.096558	0.998936	0.040654	0.021769	-0.037318	0.989961	-0.136322	-0.027092	0.135365	0.990425						
04329														-2.657935	-8.912429	-3.152360	0.999041	0.038177	0.021445	-0.034857	0.989789	-0.138213	-0.026502	0.137333	0.990170						
04330														-2.789813	-8.917601	-3.262271	0.999145	0.035275	0.021576	-0.031900	0.989549	-0.140625	-0.026311	0.139816	0.989828						
04331														-2.680805	-8.841592	-3.039107	0.999028	0.038439	0.021591	-0.034961	0.989072	-0.143226	-0.026860	0.142332	0.989454						
04332														-2.670718	-9.015337	-3.071559	0.998828	0.043511	0.021203	-0.039970	0.988521	-0.145698	-0.027299	0.144680	0.989102						
04333														-2.752442	-8.965468	-3.074617	0.998611	0.048289	0.021054	-0.044662	0.988014	-0.147764	-0.027937	0.146618	0.988799						
04334														-3.071335	-8.642688	-2.737630	0.998326	0.054088	0.020487	-0.050387	0.987236	-0.151081	-0.028397	0.149796	0.988309						
04335														-3.135545	-8.643989	-2.522986	0.997885	0.062330	0.018429	-0.058732	0.986152	-0.155098	-0.027841	0.153688	0.987727						
04336														-2.824679	-9.031752	-2.561005	0.997490	0.069003	0.015888	-0.065636	0.985231	-0.158148	-0.026567	0.156709	0.987288						
04337														-3.073648	-8.959042	-2.632914	0.997047	0.075553	0.013758	-0.072399	0.984505	-0.159712	-0.025611	0.158244	0.987068						
04338														-3.790465	-8.897773	-2.933880	0.996353	0.084829	0.009212	-0.082208	0.983242	-0.162717	-0.022861	0.161366	0.986630						
04339														-4.114093	-9.702587	-2.991516	0.995623	0.093419	0.002752	-0.091634	0.981544	-0.167850	-0.018381	0.166863	0.985809						
04340														-3.590735	-9.082919	-3.171868	0.995147	0.098274	-0.004867	-0.097656	0.980418	-0.171011	-0.012034	0.170656	0.985257						
04341														-3.013817	-8.631021	-3.189102	0.995373	0.095428	-0.011231	-0.095915	0.979809	-0.175426	-0.005736	0.175691	0.984429						
04342														-2.836776	-8.297654	-3.530847	0.995542	0.093075	-0.015271	-0.094307	0.979613	-0.177380	-0.001550	0.178030	0.984024						
04343														-3.140980	-8.239312	-3.414538	0.995259	0.095441	-0.018718	-0.097251	0.979128	-0.178467	0.001294	0.179442	0.983768						
04344														-3.386812	-8.084469	-3.494059	0.994704	0.100173	-0.023016	-0.102677	0.978590	-0.178377	0.004655	0.179796	0.983693						
04345														-3.337979	-7.896070	-3.785416	0.994053	0.104995	-0.028881	-0.108488	0.977781	-0.179373	0.009406	0.181440	0.983357						
04346														-3.283597	-8.303898	-3.879415	0.993502	0.108335	-0.034891	-0.112915	0.976668	-0.182674	0.014287	0.185427	0.982554						
04347														-3.272918	-8.374952	-3.926022	0.992756	0.112800	-0.041365	-0.118609	0.975035	-0.187717	0.019158	0.191264	0.981352						
04348														-3.410843	-8.230099	-4.490150	0.991913	0.117394	-0.048245	-0.124617	0.972900	-0.194773	0.024072	0.199210	0.979661						
04349														-3.708962	-8.139819	-4.329677	0.990588	0.125412	-0.054836	-0.134096	0.969521	-0.205054	0.027448	0.210477	0.977213						
04350														-3.614321	-8.196562	-4.449767	0.988098	0.139894	-0.063964	-0.150585	0.964581	-0.216581	0.031400	0.223636	0.974167						
04351														-3.649595	-8.032064	-5.002374	0.985657	0.151794	-0.073744	-0.164974	0.958714	-0.231628	0.035539	0.240471	0.970005						
04352														-4.313774	-8.244148	-4.572304	0.983983	0.157908	-0.082720	-0.173860	0.952590	-0.249688	0.039371	0.260070	0.964787						
04353														-4.126659	-7.929985	-3.922344	0.981928	0.165180	-0.092379	-0.184292	0.945599	-0.268103	0.043068	0.280282	0.958951						
04354														-3.899787	-7.499447	-4.105378	0.979018	0.175995	-0.102708	-0.198572	0.937125	-0.286996	0.045740	0.301369	0.952410						
04355														-3.900984	-7.164559	-4.369740	0.975653	0.186880	-0.114794	-0.213773	0.927290	-0.307301	0.049019	0.324359	0.944663						
04356														-4.140637	-7.046522	-3.876148	0.973030	0.192638	-0.126895	-0.224515	0.917168	-0.329234	0.052961	0.348845	0.935683						
04357														-4.620328	-6.924103	-3.421063	0.970746	0.195460	-0.139451	-0.233066	0.906683	-0.351576	0.057719	0.373792	0.925715						
04358														-5.057588	-7.775588	-3.331147	0.968188	0.198645	-0.152157	-0.242526	0.894634	-0.375248	0.061584	0.400213	0.914351						
04359														-5.458532	-8.936671	-3.201423	0.965499	0.202445	-0.163790	-0.252339	0.882692	-0.396459	0.064315	0.424112	0.903323						
04360														-5.660232	-9.341939	-2.912953	0.962863	0.206262	-0.174214	-0.261567	0.872558	-0.412583	0.066912	0.442830	0.894105						
04361														-5.777793	-9.534089	-2.906971	0.959857	0.211396	-0.184352	-0.271722	0.863844	-0.424194	0.069578	0.457258	0.886608						
04362														-5.708004	-9.500965	-3.187951	0.957421	0.215756	-0.191820	-0.279612	0.858378	-0.430121	0.071853	0.465442	0.882157						
04363														-5.931869	-8.052006	-2.758112	0.955766	0.218629	-0.196755	-0.284538	0.856690	-0.430257	0.074491	0.467209	0.881003						
04364														-5.233714	-7.151044	-2.301239	0.953713	0.222490	-0.202310	-0.290301	0.856706	-0.426356	0.078460	0.465352	0.881641						
04365														-4.511914	-6.859508	-2.369990	0.953757	0.220652	-0.204106	-0.289031	0.859654	-0.421255	0.082510	0.460768	0.883677						
04366														-5.080105	-6.687066	-2.715311	0.955777	0.214214	-0.201503	-0.281434	0.865072	-0.415265	0.085359	0.453610	0.887103						
04367														-5.710588	-6.117775	-2.729990	0.958042	0.207195	-0.198056	-0.272876	0.870778	-0.409003	0.087719	0.445887	0.890781						
04368														-5.742424	-6.449471	-3.596180	0.961502	0.193963	-0.194657	-0.258832	0.877172	-0.404446	0.092300	0.439259	0.893606						
04369														-5.370350	-6.834262	-3.407016	0.966049	0.177113	-0.188098	-0.240312	0.883323	-0.402480	0.094867	0.434017	0.895896						
04370														-4.914062	-7.031174	-2.494870	0.970687	0.159273	-0.179997	-0.220113	0.889866	-0.399610	0.096526	0.427516	0.898840						
04371														-4.881236	-7.379054	-2.137144	0.974878	0.142361	-0.171307	-0.200202	0.897148	-0.393757	0.097632	0.418161	0.903111						
04372														-4.465186	-9.076907	-2.588659	0.978680	0.125968	-0.162227	-0.180105	0.906012	-0.383020	0.098731	0.404072	0.909383						
04373														-4.171800	-10.170730	-2.496298	0.983218	0.104310	-0.149673	-0.153062	0.918080	-0.365651	0.099270	0.382424	0.918639						
04374														-3.204425	-9.936012	-2.587402	0.989118	0.072754	-0.127873	-0.113111	0.931858	-0.344741	0.094078	0.355453	0.929947						
04375														-2.141300	-10.354279	-3.194533	0.994681	0.024563	-0.100030	-0.055859	0.944577	-0.323502	0.086540	0.327369	0.940925						
04376														-2.072322	-11.798787	-3.780158	0.996772	-0.039595	-0.069847	0.017005	0.954316	-0.298316	0.078468	0.296165	0.951908						
04377														-2.603284	-11.922062	-4.713497	0.992642	-0.114727	-0.038714	0.100542	0.959148	-0.264437	0.067471	0.258599	0.963626						
04378														-3.123897	-10.074225	-5.804364	0.981002	-0.193510	-0.013754	0.185562	0.956659	-0.224436	0.056589	0.217619	0.974392						
04379														-3.260543	-8.635161	-5.117052	0.965350	-0.260955	0.000964	0.256602	0.948560	-0.185443	0.047478	0.179265	0.982654						
04380														-2.931471	-8.718947	-4.208029	0.948767	-0.315908	0.006631	0.313331	0.937902	-0.148876	0.040812	0.143326	0.988834						
04381														-2.474161	-9.307621	-3.551842	0.934402	-0.356220	0.000589	0.353971	0.928314	-0.113746	0.039972	0.106493	0.993510						
04382														-2.642297	-10.069329	-3.967029	0.922129	-0.386571	-0.015510	0.384169	0.919667	-0.081403	0.045732	0.069105	0.996561						
04383														-3.369561	-10.181001	-4.233039	0.913339	-0.405771	-0.034093	0.403854	0.913364	-0.051662	0.052102	0.033416	0.998083						
04384														-3.066996	-8.915215	-4.265622	0.910042	-0.411689	-0.048334	0.410840	0.911313	-0.026824	0.055091	0.004553	0.998471						
04385														-2.037922	-8.186490	-4.149589	0.911214	-0.407128	-0.062743	0.407248	0.913246	-0.011443	0.061959	-0.015125	0.997964						
04386														-2.446360	-9.024770	-2.967330	0.908181	-0.410930	-0.079650	0.412176	0.911104	-0.000871	0.072927	-0.032038	0.996823						
04387														-2.796158	-8.738428	-2.176792	0.903115	-0.417784	-0.099192	0.420654	0.907176	0.009025	0.086214	-0.049876	0.995027						
04388														-3.131673	-8.543812	-1.563780	0.899196	-0.422167	-0.114988	0.426709	0.904229	0.017040	0.096782	-0.064389	0.993221						
04389														-3.046982	-8.388135	-0.955431	0.900179	-0.416363	-0.127750	0.423166	0.905539	0.030470	0.102996	-0.081488	0.991338						
04390														-2.507643	-8.025363	-0.826214	0.902388	-0.407170	-0.141095	0.416628	0.907997	0.044304	0.110075	-0.098763	0.989004						
04391														-2.009700	-8.326757	-1.147976	0.902930	-0.400857	-0.155021	0.413448	0.908642	0.058563	0.117383	-0.116972	0.986174						
04392														-2.203828	-7.935381	-1.239750	0.902564	-0.397058	-0.166501	0.412929	0.907786	0.073582	0.121930	-0.135166	0.983292						
04393														-2.827237	-7.562514	-1.059676	0.902972	-0.392867	-0.174061	0.411134	0.907685	0.084126	0.124942	-0.147526	0.981135						
04394														-3.202121	-7.627916	-1.241201	0.905277	-0.385628	-0.178223	0.405395	0.909595	0.091059	0.126996	-0.154685	0.979768						
04395														-2.776255	-7.589418	-1.698317	0.908598	-0.377434	-0.178865	0.397911	0.912384	0.096029	0.126949	-0.158424	0.979176						
04396														-2.973997	-7.379595	-1.986472	0.911507	-0.370891	-0.177747	0.390998	0.915497	0.094788	0.127571	-0.155899	0.979500						
04397														-4.077062	-8.883043	-2.123055	0.915305	-0.361451	-0.177681	0.380139	0.921054	0.084575	0.133084	-0.144955	0.980447						
04398														-5.579652	-11.748923	-2.358292	0.921476	-0.345952	-0.176632	0.362028	0.929702	0.067750	0.140777	-0.126376	0.981942						
04399														-5.946557	-11.053734	-2.861255	0.929118	-0.329821	-0.167209	0.342855	0.937754	0.055391	0.138532	-0.108793	0.984364						
04400														-5.490960	-7.697906	-2.786787	0.937102	-0.312718	-0.155071	0.322532	0.945621	0.042129	0.133464	-0.089494	0.987005						
04401														-5.560126	-6.674494	-2.825751	0.944779	-0.292613	-0.147551	0.298957	0.954005	0.022326	0.134231	-0.065205	0.988802						
04402														-5.564034	-6.894438	-3.181510	0.951490	-0.271040	-0.145619	0.274401	0.961610	0.003126	0.139182	-0.042932	0.989336						
04403														-4.968305	-7.390276	-3.222590	0.958227	-0.245455	-0.146811	0.245710	0.969200	-0.016681	0.146383	-0.020089	0.989024						
04404														-4.307466	-8.539773	-3.208974	0.964757	-0.218333	-0.146882	0.213884	0.975793	-0.045627	0.153288	0.012603	0.988101						
04405														-4.187533	-10.097040	-3.664192	0.971220	-0.188828	-0.145173	0.178795	0.980676	-0.079419	0.157365	0.051177	0.986214						
04406														-5.364364	-10.426915	-3.450408	0.977243	-0.158769	-0.140670	0.143981	0.983474	-0.109765	0.155773	0.087013	0.983953						
04407														-5.812875	-9.493923	-2.859810	0.983027	-0.125969	-0.133382	0.107573	0.984691	-0.137154	0.148617	0.120477	0.981529						
04408														-5.700438	-8.687879	-2.667629	0.987946	-0.089563	-0.126262	0.068023	0.983839	-0.165630	0.139055	0.155045	0.978072						
04409														-5.472992	-8.053707	-3.173558	0.990945	-0.051506	-0.123997	0.026515	0.980379	-0.195332	0.131625	0.190275	0.972867						
04410														-5.154949	-7.900869	-3.765261	0.991849	-0.016739	-0.126318	-0.012520	0.973736	-0.227337	0.126805	0.227066	0.965589						
04411														-5.281750	-7.704508	-3.557788	0.991231	0.013821	-0.131412	-0.048356	0.963469	-0.263419	0.122971	0.267464	0.955689						
04412														-5.539417	-8.362981	-3.383646	0.989205	0.042388	-0.140271	-0.083296	0.950210	-0.300271	0.120559	0.308714	0.943484						
04413														-5.840986	-8.690805	-2.867226	0.986296	0.068065	-0.150292	-0.115193	0.936239	-0.331944	0.118115	0.344708	0.931249						
04414														-5.701796	-8.259714	-2.478540	0.982291	0.093453	-0.162394	-0.147033	0.921698	-0.358961	0.116132	0.376482	0.919116						
04415														-4.984248	-8.349123	-2.107053	0.977676	0.117322	-0.174311	-0.177021	0.906828	-0.382526	0.113192	0.404843	0.907353						
04416														-4.087522	-7.734744	-1.540775	0.974474	0.132095	-0.181523	-0.196449	0.893107	-0.404683	0.108663	0.430013	0.896260						
04417														-4.888573	-7.148004	-1.371027	0.973170	0.137376	-0.184574	-0.205529	0.879633	-0.428956	0.103429	0.455383	0.884267						
04418														-5.099809	-7.334352	-1.472087	0.973022	0.138118	-0.184802	-0.208533	0.869189	-0.448357	0.098702	0.474798	0.874543						
04419														-4.538708	-7.051605	-1.479769	0.973120	0.137876	-0.184469	-0.209515	0.862550	-0.460555	0.095614	0.486824	0.868251						
04420														-4.641243	-6.745534	-1.532170	0.974028	0.133977	-0.182539	-0.205698	0.860541	-0.466001	0.094649	0.491446	0.865750						
04421														-4.828529	-6.778396	-1.690981	0.975386	0.127453	-0.179939	-0.198637	0.862169	-0.466056	0.095738	0.490327	0.866264						
04422														-4.720448	-7.181953	-1.896054	0.977330	0.117564	-0.176082	-0.187390	0.867419	-0.460945	0.098546	0.483491	0.869784						
04423														-4.660081	-7.723041	-1.927607	0.979844	0.105089	-0.169891	-0.172093	0.875913	-0.450733	0.101443	0.470885	0.876343						
04424														-4.333233	-8.959399	-2.254579	0.982812	0.088362	-0.162090	-0.151595	0.887361	-0.435441	0.105356	0.452528	0.885505						
04425														-3.563256	-10.410043	-4.104537	0.986511	0.061143	-0.151850	-0.120052	0.900852	-0.417196	0.111286	0.429798	0.896041						
04426														-4.025385	-10.686395	-4.945677	0.991136	0.015187	-0.131979	-0.067015	0.914942	-0.397983	0.114709	0.403300	0.907850						
04427														-4.787532	-10.221708	-4.893368	0.993044	-0.044062	-0.109189	-0.000286	0.926435	-0.376455	0.117744	0.373867	0.919978						
04428														-4.742200	-9.447764	-4.927961	0.990510	-0.102060	-0.092051	0.063653	0.934248	-0.350896	0.121811	0.341707	0.931879						
04429														-3.616256	-9.967294	-4.968168	0.984414	-0.155164	-0.082781	0.121003	0.939170	-0.321430	0.127620	0.306404	0.943308						
04430														-2.869183	-9.850447	-5.197605	0.975128	-0.208108	-0.076269	0.178644	0.941637	-0.285318	0.131194	0.264597	0.955393						
04431														-3.212015	-9.054897	-5.162795	0.964025	-0.255765	-0.072383	0.231044	0.940916	-0.247580	0.131428	0.221950	0.966160						
04432														-3.470615	-9.597585	-4.190738	0.953261	-0.291599	-0.079141	0.270454	0.940261	-0.206793	0.134714	0.175724	0.975179						
04433														-3.543672	-11.493657	-4.723562	0.942876	-0.318378	-0.098077	0.300810	0.940156	-0.160063	0.143169	0.121417	0.982222						
04434														-3.956074	-9.898552	-4.523909	0.932718	-0.343105	-0.110979	0.331767	0.937072	-0.108754	0.141310	0.064618	0.987854						
04435														-3.455875	-8.321524	-3.767719	0.925514	-0.359787	-0.118225	0.354499	0.932877	-0.063807	0.133247	0.017144	0.990935						
04436														-3.180202	-8.436025	-2.591944	0.920825	-0.368471	-0.127714	0.368302	0.929348	-0.025813	0.128202	-0.023268	0.991475						
04437														-2.359532	-9.757687	-2.757320	0.916276	-0.375172	-0.140299	0.379999	0.924949	0.008336	0.126642	-0.060951	0.990074						
04438														-1.849110	-7.947412	-1.892579	0.908370	-0.392615	-0.143937	0.401710	0.914913	0.039547	0.116163	-0.093745	0.988796						
04439														-1.911064	-6.194974	-1.158755	0.898568	-0.414228	-0.144883	0.425293	0.903393	0.054827	0.108176	-0.110884	0.987929						
04440														-3.112495	-7.406144	0.099118	0.887512	-0.434783	-0.152602	0.447826	0.891867	0.063446	0.108515	-0.124648	0.986249						
04441														-3.682330	-9.229985	-0.213911	0.879412	-0.445430	-0.168005	0.462689	0.882773	0.081431	0.112038	-0.149345	0.982417						
04442														-3.829333	-9.571815	-0.649428	0.870342	-0.457240	-0.182854	0.479949	0.870734	0.107109	0.110243	-0.180982	0.977288						
04443														-4.159560	-8.627322	-0.879590	0.862217	-0.466656	-0.197011	0.495211	0.858359	0.134110	0.106523	-0.213194	0.971185						
04444														-4.568070	-8.679531	-0.951927	0.858862	-0.467285	-0.209763	0.501609	0.850201	0.159833	0.103653	-0.242494	0.964600						
04445														-4.158055	-8.804007	-1.315439	0.861426	-0.458485	-0.218489	0.497858	0.847345	0.184781	0.100416	-0.267952	0.958185						
04446														-3.647023	-8.216816	-1.504634	0.865874	-0.448248	-0.222116	0.490827	0.847038	0.203999	0.096699	-0.285658	0.953441						
04447														-3.544163	-7.320804	-1.281925	0.869884	-0.440581	-0.221790	0.484202	0.848485	0.213594	0.094081	-0.293193	0.951413						
04448														-3.601800	-6.861443	-1.345086	0.876006	-0.429370	-0.219669	0.472886	0.854196	0.216167	0.094825	-0.293242	0.951324						
04449														-3.672354	-6.654554	-1.275129	0.883010	-0.416137	-0.217078	0.458897	0.862535	0.213183	0.098524	-0.287859	0.952591						
04450														-4.167304	-6.465383	-0.811856	0.889806	-0.401806	-0.216325	0.443608	0.872807	0.203519	0.107035	-0.277056	0.954874						
04451														-4.741863	-7.386182	-0.855433	0.898298	-0.381362	-0.218227	0.422153	0.886826	0.187955	0.121851	-0.260965	0.957627						
04452														-5.335290	-9.612150	-1.392684	0.909745	-0.352978	-0.218566	0.391414	0.904736	0.168072	0.138418	-0.238452	0.961239						
04453														-5.701975	-10.776314	-1.854514	0.920819	-0.326344	-0.213524	0.360345	0.921352	0.145813	0.149146	-0.211210	0.965995						
04454														-6.168052	-9.200665	-1.996899	0.928029	-0.311221	-0.204704	0.339961	0.932244	0.123884	0.152279	-0.184559	0.970953						
04455														-6.310752	-7.116173	-2.631975	0.935397	-0.295565	-0.194095	0.318631	0.942563	0.100249	0.153317	-0.155617	0.975847						
04456														-6.628146	-8.284112	-2.782763	0.944131	-0.270444	-0.188352	0.287336	0.955376	0.068523	0.161415	-0.118815	0.979708						
04457														-7.121408	-11.001422	-2.457684	0.952457	-0.241369	-0.185923	0.251615	0.967255	0.033281	0.171802	-0.078479	0.982001						
04458														-6.295887	-11.030021	-2.298668	0.961861	-0.205773	-0.180223	0.208856	0.977944	-0.001909	0.176641	-0.035804	0.983624						
04459														-5.359724	-9.946448	-1.775795	0.969786	-0.172254	-0.172753	0.167929	0.985009	-0.039459	0.176960	0.009257	0.984175						
04460														-5.000371	-9.015982	-1.320638	0.975614	-0.142760	-0.166722	0.131500	0.988338	-0.076782	0.175739	0.052985	0.983010						
04461														-5.010091	-7.853000	-2.720673	0.979589	-0.117307	-0.163230	0.098960	0.988267	-0.116343	0.174962	0.097815	0.979704						
04462														-5.355042	-7.920679	-2.836736	0.982135	-0.093780	-0.163143	0.067459	0.984810	-0.159993	0.175669	0.146129	0.973543						
04463														-5.000429	-7.910717	-2.612447	0.984183	-0.067236	-0.163900	0.033669	0.979307	-0.199561	0.173926	0.190887	0.966081						
04464														-4.967996	-7.088285	-3.305561	0.985439	-0.039629	-0.165346	-0.000798	0.971370	-0.237571	0.170027	0.234244	0.957194						
04465														-5.592599	-7.013638	-3.111491	0.985373	-0.016392	-0.169621	-0.031604	0.960518	-0.276417	0.167455	0.277734	0.945950						
04466														-5.773226	-7.386690	-2.209479	0.984330	0.008923	-0.176110	-0.064368	0.947984	-0.311742	0.164167	0.318193	0.933703						
04467														-5.349743	-7.850480	-2.001436	0.982032	0.037685	-0.184913	-0.100353	0.934113	-0.342581	0.159819	0.354982	0.921111						
04468														-4.807588	-8.146431	-1.961933	0.979553	0.061256	-0.191632	-0.129499	0.920937	-0.367567	0.153965	0.384867	0.910040						
04469														-4.491267	-7.672415	-1.910616	0.978098	0.075152	-0.194106	-0.147142	0.909232	-0.389417	0.147222	0.409449	0.900376						
04470														-5.627127	-6.870577	-1.823628	0.977022	0.084705	-0.195582	-0.159924	0.897957	-0.409996	0.140895	0.431854	0.890871						
04471														-5.873954	-7.504885	-1.751048	0.975620	0.092600	-0.198977	-0.171200	0.888383	-0.425989	0.137321	0.449668	0.882577						
04472														-5.300373	-7.960981	-1.774659	0.974785	0.097336	-0.200798	-0.178020	0.881786	-0.436765	0.134548	0.461498	0.876879						
04473														-4.890191	-8.213573	-1.974850	0.975300	0.096338	-0.198771	-0.177008	0.879171	-0.442410	0.132133	0.466666	0.874508						
04474														-5.114774	-7.594192	-1.586492	0.977091	0.089028	-0.193305	-0.167914	0.880555	-0.443201	0.130759	0.465507	0.875332						
04475														-5.025433	-7.599980	-1.472061	0.979400	0.077385	-0.186513	-0.153624	0.885006	-0.439504	0.131055	0.459103	0.878663						
04476														-4.356180	-8.306824	-2.024454	0.982634	0.058889	-0.175959	-0.130829	0.892352	-0.431963	0.131580	0.447483	0.884560						
04477														-3.978252	-8.632375	-3.101166	0.986798	0.029970	-0.159160	-0.095170	0.902462	-0.420125	0.131044	0.429725	0.893400						
04478														-4.791305	-7.930277	-4.120622	0.990028	-0.008141	-0.140636	-0.050227	0.912316	-0.406395	0.131613	0.409406	0.902810						
04479														-5.294630	-7.737713	-4.173871	0.990950	-0.047776	-0.125442	-0.004533	0.922072	-0.386993	0.134156	0.384059	0.913510						
04480														-4.561275	-8.641241	-3.903560	0.989534	-0.083285	-0.117843	0.035213	0.931311	-0.362518	0.139940	0.354575	0.924496						
04481														-3.343232	-10.793366	-4.467282	0.986197	-0.118101	-0.116050	0.073429	0.940149	-0.332759	0.148403	0.319645	0.935844						
04482														-2.489259	-11.329600	-5.212845	0.981598	-0.155990	-0.110152	0.117472	0.948028	-0.295707	0.150555	0.277325	0.948907						
04483														-3.161853	-9.686413	-5.082535	0.975641	-0.196559	-0.097407	0.166345	0.952354	-0.255638	0.143014	0.233207	0.961853						
04484														-3.386407	-8.144145	-4.131556	0.968473	-0.232875	-0.088481	0.209330	0.953290	-0.217759	0.135059	0.192372	0.971984						
04485														-3.428376	-9.191323	-4.820163	0.959980	-0.264624	-0.091723	0.244826	0.951944	-0.184017	0.136010	0.154197	0.978634						
04486														-4.391553	-10.669229	-5.186809	0.950959	-0.291673	-0.102974	0.274948	0.949593	-0.150588	0.141706	0.114891	0.983219						
04487														-5.404353	-10.337472	-4.419871	0.943615	-0.308379	-0.120391	0.295567	0.948595	-0.113174	0.149103	0.071209	0.986254						
04488														-4.834161	-9.641173	-3.798672	0.940231	-0.312877	-0.134439	0.305456	0.949388	-0.073210	0.150540	0.027769	0.988214						
04489														-3.944291	-8.610080	-2.592270	0.936419	-0.319354	-0.145368	0.317153	0.947584	-0.038703	0.150108	-0.009861	0.988620						
04490														-3.110330	-8.579984	-1.753810	0.931468	-0.327011	-0.159473	0.329210	0.944165	-0.013188	0.154882	-0.040216	0.987114						
04491														-2.948682	-8.771308	-1.609575	0.923307	-0.340834	-0.177020	0.348157	0.937370	0.011117	0.162144	-0.071895	0.984145						
04492														-3.822258	-8.075356	-0.621102	0.912456	-0.359732	-0.194981	0.373231	0.927029	0.036283	0.167700	-0.105880	0.980136						
04493														-4.124326	-7.622331	-0.550889	0.908217	-0.360022	-0.213369	0.380997	0.922245	0.065610	0.173158	-0.140881	0.974766						
04494														-3.800622	-7.411169	-0.913430	0.905719	-0.355876	-0.230271	0.384934	0.918011	0.095300	0.177477	-0.174954	0.968449						
04495														-3.716553	-7.697507	-1.085509	0.904844	-0.348568	-0.244452	0.384972	0.915072	0.120164	0.181806	-0.202837	0.962187						
04496														-3.459433	-8.051674	-1.052987	0.905787	-0.339032	-0.254178	0.382067	0.912858	0.143925	0.183233	-0.227479	0.956389						
04497														-3.043434	-7.786353	-1.116651	0.907318	-0.330505	-0.259885	0.378793	0.910808	0.164146	0.182454	-0.247375	0.951586						
04498														-2.943795	-7.342570	-1.345995	0.907762	-0.326760	-0.263052	0.378097	0.908941	0.175693	0.181689	-0.258947	0.948649						
04499														-3.277180	-7.547013	-1.237572	0.908259	-0.325246	-0.263212	0.377275	0.908621	0.179085	0.180914	-0.261959	0.947970						
04500														-3.963977	-7.543706	-0.634334	0.909658	-0.323909	-0.260010	0.374900	0.909766	0.178261	0.178808	-0.259634	0.949009						
04501														-4.573684	-6.938483	-0.513154	0.912103	-0.321515	-0.254356	0.369776	0.913099	0.171802	0.177015	-0.250756	0.951728						
04502														-4.703464	-7.630714	-1.098754	0.919640	-0.307451	-0.244410	0.350660	0.923022	0.158330	0.176917	-0.231312	0.956658						
04503														-5.410831	-9.465678	-1.305699	0.928629	-0.288689	-0.233039	0.325574	0.935282	0.138741	0.177905	-0.204711	0.962519						
04504														-5.828198	-9.970051	-1.068457	0.936850	-0.270621	-0.221533	0.301158	0.946295	0.117598	0.177811	-0.176888	0.968036						
04505														-5.648183	-9.310079	-0.991890	0.942752	-0.259795	-0.209105	0.285270	0.952990	0.102137	0.172740	-0.155942	0.972545						
04506														-5.260107	-7.130384	-2.260476	0.948699	-0.248645	-0.195309	0.269853	0.958654	0.090340	0.164771	-0.138411	0.976572						
04507														-5.949750	-5.622918	-3.938171	0.955903	-0.228684	-0.184265	0.244236	0.967442	0.066360	0.163090	-0.108438	0.980634						
04508														-6.869857	-6.912141	-3.443589	0.960901	-0.209283	-0.181299	0.217966	0.975521	0.029147	0.170761	-0.067524	0.982996						
04509														-6.668029	-8.535553	-2.618000	0.966146	-0.183879	-0.180969	0.184891	0.982693	-0.011412	0.179936	-0.022434	0.983423						
04510														-5.735866	-10.010069	-2.690192	0.972268	-0.147487	-0.181499	0.139416	0.988620	-0.056522	0.187770	0.029651	0.981765						
04511														-5.301678	-12.125655	-3.208421	0.977338	-0.114835	-0.177832	0.097764	0.989971	-0.101978	0.187759	0.082281	0.978763						
04512														-5.779070	-10.459371	-3.596260	0.981454	-0.092785	-0.167746	0.069593	0.987814	-0.139210	0.178619	0.124954	0.975952						
04513														-6.621734	-8.198575	-3.241728	0.984740	-0.070222	-0.159239	0.041010	0.982845	-0.179814	0.169134	0.170539	0.970727						
04514														-6.760614	-8.199560	-2.985723	0.986881	-0.044489	-0.155200	0.008639	0.974458	-0.224404	0.161219	0.220119	0.962058						
04515														-6.024234	-8.299802	-3.715816	0.987971	-0.015656	-0.153843	-0.025690	0.964419	-0.263128	0.152489	0.263915	0.952416						
04516														-5.753705	-7.612561	-4.065948	0.987295	0.015798	-0.158113	-0.063216	0.951963	-0.299616	0.145784	0.305805	0.940867						
04517														-6.554922	-7.353449	-3.771149	0.984766	0.045501	-0.167825	-0.100198	0.937297	-0.333818	0.142113	0.345548	0.927578						
04518														-6.744787	-7.613384	-2.610553	0.980101	0.075053	-0.183766	-0.138618	0.921428	-0.362982	0.142084	0.381232	0.913496						
04519														-5.451043	-7.783883	-2.319312	0.973482	0.104392	-0.203558	-0.177883	0.904922	-0.386618	0.143844	0.412575	0.899495						
04520														-4.432175	-7.662403	-2.337003	0.967006	0.125011	-0.221970	-0.208425	0.889248	-0.407183	0.146484	0.440012	0.885964						
04521														-4.652913	-7.502779	-1.413593	0.962503	0.133476	-0.236160	-0.225965	0.876175	-0.425743	0.150091	0.463143	0.873482						
04522														-5.045628	-7.302590	-0.272880	0.959276	0.136699	-0.247191	-0.236675	0.866654	-0.439198	0.154191	0.479816	0.863714						
04523														-4.653386	-6.995336	-0.250037	0.955999	0.140647	-0.257458	-0.246730	0.860239	-0.446222	0.158716	0.490110	0.857089						
04524														-3.999197	-7.299920	-0.513662	0.955235	0.137965	-0.261708	-0.247059	0.858635	-0.449118	0.162749	0.493671	0.854284						
04525														-4.438610	-6.994866	-0.531556	0.957197	0.128850	-0.259176	-0.237064	0.862750	-0.446612	0.166059	0.488937	0.856367						
04526														-4.539469	-7.466064	-0.860707	0.960439	0.116431	-0.252985	-0.221165	0.870939	-0.438806	0.169244	0.477398	0.862234						
04527														-4.189597	-8.726349	-1.441235	0.965585	0.098324	-0.240788	-0.196427	0.882500	-0.427328	0.170479	0.459919	0.871442						
04528														-3.944770	-10.084833	-2.168077	0.972654	0.071723	-0.220906	-0.159815	0.896834	-0.412491	0.168531	0.436515	0.883771						
04529														-4.173981	-9.415794	-3.118315	0.980425	0.032987	-0.194112	-0.109023	0.911890	-0.395690	0.163956	0.409107	0.897636						
04530														-3.921467	-8.986180	-3.435890	0.985876	-0.016226	-0.166692	-0.048160	0.925791	-0.374955	0.160406	0.377687	0.911933						
04531														-2.894749	-10.171401	-3.588829	0.986822	-0.076275	-0.142702	0.022114	0.937225	-0.348024	0.160289	0.340282	0.926561						
04532														-2.800822	-11.836013	-5.274530	0.981290	-0.150662	-0.119882	0.106431	0.943326	-0.314339	0.160447	0.295698	0.941711						
04533														-3.837052	-12.115801	-7.129286	0.966457	-0.236593	-0.099919	0.202224	0.940861	-0.271821	0.158321	0.242497	0.957147						
04534														-6.980103	-10.829604	-6.569863	0.945853	-0.311679	-0.090660	0.285841	0.932123	-0.222356	0.153810	0.184402	0.970741						
04535														-7.784079	-9.536455	-5.638326	0.932251	-0.348298	-0.097965	0.329832	0.929402	-0.165597	0.148726	0.122066	0.981316						
04536														-5.397176	-9.680023	-5.982971	0.928307	-0.354791	-0.111219	0.343140	0.932679	-0.111195	0.143183	0.065060	0.987556						
04537														-3.208103	-10.305726	-6.119384	0.925198	-0.359419	-0.121763	0.354438	0.933080	-0.061110	0.135579	0.013382	0.990676						
04538														-2.593440	-8.855902	-4.224778	0.916514	-0.376127	-0.136130	0.378149	0.925671	-0.011683	0.130406	-0.040770	0.990622						
04539														-3.146862	-8.112990	-2.775395	0.905261	-0.395705	-0.154659	0.404337	0.914191	0.027680	0.130435	-0.087592	0.987580						
04540														-3.729334	-8.030265	-1.885897	0.895208	-0.410731	-0.172927	0.426006	0.902631	0.061447	0.130851	-0.128676	0.983016						
04541														-3.299705	-7.994176	-1.337043	0.887991	-0.418588	-0.190409	0.440715	0.892873	0.092462	0.131308	-0.166021	0.977341						
04542														-3.463961	-7.537766	-0.773638	0.877338	-0.432358	-0.208193	0.461821	0.878609	0.121520	0.130380	-0.202762	0.970509						
04543														-3.871977	-6.999957	0.082849	0.875212	-0.428713	-0.224072	0.465991	0.871517	0.152675	0.129829	-0.238039	0.962539						
04544														-3.163045	-7.227240	0.032388	0.880333	-0.412436	-0.234329	0.456825	0.870187	0.184622	0.127765	-0.269576	0.954466						
04545														-3.113528	-7.537525	0.325596	0.882002	-0.404386	-0.241960	0.453977	0.866851	0.206093	0.126402	-0.291619	0.948146						
04546														-3.687677	-7.898282	-0.290544	0.882226	-0.399149	-0.249715	0.453375	0.863256	0.221899	0.126997	-0.308980	0.942552						
04547														-3.963495	-7.835423	-1.371947	0.883761	-0.391739	-0.255945	0.449932	0.861650	0.234779	0.128563	-0.322646	0.937748						
04548														-4.062442	-7.751168	-1.564469	0.886416	-0.383610	-0.259057	0.444125	0.862550	0.242405	0.130461	-0.329926	0.934949						
04549														-4.111050	-7.445447	-1.084981	0.890126	-0.374830	-0.259188	0.435808	0.866420	0.243696	0.133221	-0.329876	0.934577						
04550														-4.073841	-7.427189	-0.667818	0.895920	-0.363441	-0.255417	0.422827	0.873983	0.239523	0.136178	-0.322590	0.936692						
04551														-3.955637	-7.390053	-0.514840	0.903147	-0.349686	-0.249087	0.405966	0.884359	0.230437	0.139702	-0.309240	0.940667						
04552														-4.076816	-7.479485	-0.573581	0.911054	-0.334288	-0.241312	0.386331	0.896583	0.216533	0.143972	-0.290500	0.945982						
04553														-4.601349	-7.784705	-0.368310	0.918135	-0.318989	-0.235104	0.366089	0.909894	0.195121	0.151679	-0.265216	0.952184						
04554														-4.629535	-8.241802	-1.261190	0.926879	-0.298319	-0.227817	0.338972	0.925917	0.166659	0.161223	-0.231697	0.959335						
04555														-5.167156	-9.444195	-1.821428	0.936247	-0.272252	-0.222082	0.305510	0.943006	0.131923	0.173508	-0.191361	0.966062						
04556														-6.000594	-10.149042	-1.448821	0.944628	-0.244240	-0.219143	0.270152	0.957933	0.096865	0.186266	-0.150704	0.970873						
04557														-6.182815	-9.746926	-0.971160	0.950828	-0.220487	-0.217511	0.239887	0.968493	0.066901	0.195907	-0.115789	0.973763						
04558														-5.669838	-8.255947	-1.999236	0.956558	-0.196646	-0.215236	0.210924	0.976453	0.045279	0.201264	-0.088710	0.975512						
04559														-5.723673	-7.174973	-2.971226	0.963395	-0.167075	-0.209657	0.174302	0.984557	0.016345	0.203688	-0.052290	0.977638						
04560														-6.584320	-9.014222	-2.089914	0.967990	-0.140154	-0.208212	0.138537	0.990104	-0.022402	0.209292	-0.007160	0.977827						
04561														-6.073525	-8.991104	-2.672627	0.972168	-0.107045	-0.208399	0.096646	0.993539	-0.059489	0.213421	0.037692	0.976233						
04562														-5.796592	-9.528746	-3.538062	0.975653	-0.068837	-0.208239	0.046993	0.993030	-0.108088	0.214228	0.095671	0.972087						
04563														-5.924188	-11.308840	-2.932599	0.977680	-0.039994	-0.206256	0.007281	0.987574	-0.156983	0.209971	0.151977	0.965823						
04564														-5.552554	-9.474866	-2.045386	0.979558	-0.016223	-0.200506	-0.024056	0.980142	-0.196831	0.199718	0.197631	0.959716						
04565														-6.020290	-7.953724	-2.571814	0.980304	0.005881	-0.197407	-0.053909	0.969566	-0.238822	0.189994	0.244761	0.950786						
04566														-6.355246	-7.906673	-2.728991	0.979699	0.025841	-0.198801	-0.081740	0.956975	-0.278421	0.183053	0.289019	0.939659						
04567														-6.285258	-7.227014	-2.554229	0.977645	0.048598	-0.204568	-0.112407	0.943020	-0.313174	0.177692	0.329168	0.927402						
04568														-5.809704	-6.690303	-3.732555	0.974291	0.069695	-0.214241	-0.142497	0.927203	-0.346395	0.174502	0.368018	0.913297						
04569														-6.233044	-6.896541	-3.577745	0.970168	0.085946	-0.226687	-0.169525	0.908936	-0.380915	0.173306	0.407980	0.896391						
04570														-6.699165	-7.564531	-2.267163	0.965642	0.097376	-0.240945	-0.192543	0.890763	-0.411665	0.174539	0.443913	0.878907						
04571														-5.989777	-7.874078	-1.603240	0.960708	0.111152	-0.254335	-0.216500	0.873492	-0.436050	0.173691	0.473980	0.863235						
04572														-5.022194	-7.737550	-1.454136	0.956426	0.121887	-0.265315	-0.235007	0.860610	-0.451800	0.173264	0.494464	0.851754						
04573														-4.510345	-7.373186	-0.567840	0.953955	0.127205	-0.271641	-0.244795	0.853513	-0.459990	0.173337	0.505306	0.845352						
04574														-4.102897	-7.121817	-0.057916	0.954337	0.126824	-0.270474	-0.244390	0.852145	-0.462733	0.171798	0.507704	0.844228						
04575														-4.178909	-6.807133	-0.714340	0.957781	0.118086	-0.262129	-0.231914	0.856197	-0.461674	0.169917	0.502974	0.847435						
04576														-5.149823	-6.737691	-1.233325	0.962771	0.102538	-0.250114	-0.210740	0.864182	-0.456922	0.169293	0.492620	0.853619						
04577														-5.574069	-7.140147	-1.560141	0.968282	0.083135	-0.235625	-0.183857	0.875644	-0.446591	0.169196	0.475748	0.863155						
04578														-5.506031	-8.068473	-1.771818	0.973910	0.058860	-0.219169	-0.151023	0.888969	-0.432350	0.169387	0.454170	0.874665						
04579														-5.003283	-9.543881	-2.578213	0.979146	0.025919	-0.201497	-0.109404	0.902999	-0.415480	0.171182	0.428861	0.887004						
04580														-4.712821	-10.510987	-3.986190	0.983174	-0.023139	-0.181201	-0.051788	0.915940	-0.397960	0.175178	0.400648	0.899330						
04581														-4.901669	-10.394420	-4.372859	0.983751	-0.083839	-0.158763	0.018666	0.927245	-0.373989	0.178567	0.364949	0.913743						
04582														-4.445498	-10.018363	-5.161090	0.978802	-0.149247	-0.140259	0.092906	0.933861	-0.345359	0.182526	0.325007	0.927930						
04583														-4.408241	-9.389194	-6.391532	0.968380	-0.214503	-0.127395	0.166099	0.935345	-0.312315	0.186151	0.281279	0.941398						
04584														-4.616986	-8.503678	-6.291237	0.954850	-0.269700	-0.124593	0.227585	0.933599	-0.276765	0.190963	0.235914	0.952826						
04585														-4.674328	-8.944317	-6.102399	0.942824	-0.305450	-0.133352	0.269025	0.933644	-0.236504	0.196744	0.187107	0.962436						
04586														-4.836143	-9.365873	-6.179735	0.933841	-0.325893	-0.147429	0.296098	0.935555	-0.192517	0.200668	0.136127	0.970156						
04587														-5.074067	-9.617461	-5.478301	0.928261	-0.334031	-0.163568	0.312300	0.938858	-0.144965	0.201990	0.083483	0.975823						
04588														-4.865460	-9.223108	-4.510263	0.926148	-0.331340	-0.180179	0.319362	0.943086	-0.092715	0.200644	0.028326	0.979255						
04589														-4.216172	-8.448531	-3.741389	0.926575	-0.324439	-0.190257	0.322002	0.945694	-0.044471	0.194353	-0.020057	0.980727						
04590														-2.522077	-7.401237	-3.234196	0.927318	-0.317886	-0.197560	0.323506	0.946218	-0.004031	0.188217	-0.060173	0.980282						
04591														-1.896116	-7.288343	-2.479787	0.924463	-0.321270	-0.205314	0.332922	0.942649	0.024009	0.185826	-0.090549	0.978402						
04592														-2.504382	-7.166669	-1.678190	0.913342	-0.345146	-0.216056	0.361971	0.931217	0.042571	0.186502	-0.117087	0.975453						
04593														-3.787583	-7.625750	-0.429196	0.902351	-0.367136	-0.225775	0.388521	0.919655	0.057331	0.186587	-0.139451	0.972491						
04594														-4.558061	-8.507314	0.460939	0.895399	-0.378050	-0.235243	0.404876	0.911139	0.076813	0.185300	-0.164022	0.968897						
04595														-4.429842	-7.710470	0.864270	0.895547	-0.374035	-0.241024	0.405946	0.908592	0.098324	0.182216	-0.185897	0.965526						
04596														-3.888024	-7.450267	0.425441	0.899229	-0.362126	-0.245464	0.398075	0.910017	0.115783	0.181448	-0.201828	0.962467						
04597														-3.751928	-7.577624	-0.549062	0.902939	-0.350843	-0.248213	0.388924	0.912807	0.124581	0.182862	-0.209025	0.960661						
04598														-4.015123	-8.132511	-1.366604	0.904965	-0.343135	-0.251587	0.382456	0.915123	0.127585	0.186454	-0.211681	0.959388						
04599														-3.770587	-8.273316	-2.285066	0.907039	-0.336425	-0.253176	0.376358	0.917410	0.129282	0.188772	-0.212549	0.958743						
04600														-3.312634	-7.916323	-2.813954	0.907969	-0.334142	-0.252865	0.373990	0.918369	0.129342	0.189005	-0.212008	0.958817						
04601														-4.130936	-8.339825	-2.602090	0.907995	-0.334356	-0.252492	0.373871	0.918597	0.128062	0.189120	-0.210679	0.959087						
04602														-4.808831	-7.966596	-2.678703	0.909502	-0.330483	-0.252164	0.369347	0.920795	0.125376	0.190757	-0.207165	0.959528						
04603														-5.424956	-7.654307	-2.753919	0.915044	-0.317279	-0.249057	0.352856	0.928807	0.113180	0.195417	-0.191446	0.961853						
04604														-6.996399	-9.210507	-1.764248	0.922862	-0.296371	-0.245946	0.326205	0.940996	0.090094	0.204733	-0.163373	0.965087						
04605														-7.469041	-9.291969	-1.187516	0.930768	-0.274821	-0.241131	0.297790	0.952490	0.063903	0.212113	-0.131285	0.968387						
04606														-5.711729	-6.864055	-2.692261	0.941268	-0.247099	-0.230125	0.261691	0.964527	0.034712	0.213385	-0.092895	0.972542						
04607														-5.795056	-6.747742	-3.700359	0.949222	-0.222181	-0.222738	0.227488	0.973779	-0.001881	0.217316	-0.048885	0.974877						
04608														-5.898996	-8.098329	-2.752026	0.953034	-0.205173	-0.222778	0.202734	0.978643	-0.034016	0.225000	-0.012746	0.974275						
04609														-5.566212	-7.640189	-3.154975	0.956326	-0.186899	-0.224743	0.177146	0.982167	-0.062993	0.232509	0.020430	0.972380						
04610														-6.009854	-8.637091	-4.465309	0.961644	-0.154414	-0.226711	0.132444	0.985156	-0.109204	0.240208	0.074989	0.967821						
04611														-6.848371	-11.683853	-3.471800	0.966342	-0.125192	-0.224743	0.090551	0.983222	-0.158353	0.240796	0.132672	0.961465						
04612														-6.187012	-8.969927	-2.832098	0.972022	-0.089665	-0.217103	0.047333	0.980084	-0.192858	0.230072	0.177186	0.956907						
04613														-6.873542	-6.924825	-4.522554	0.975359	-0.048046	-0.215330	-0.004389	0.971581	-0.236667	0.220581	0.231780	0.947429						
04614														-7.080753	-8.594176	-4.084086	0.975350	-0.017072	-0.220001	-0.046580	0.958608	-0.280894	0.215690	0.284217	0.934183						
04615														-6.333066	-7.723867	-2.774102	0.973568	0.013359	-0.228006	-0.086481	0.945520	-0.313869	0.211391	0.325291	0.921683						
04616														-5.924461	-6.589595	-3.773452	0.969289	0.045515	-0.241677	-0.130142	0.928778	-0.347038	0.208669	0.367832	0.906177						
04617														-5.690929	-8.004223	-3.437377	0.964075	0.068496	-0.256646	-0.165816	0.909999	-0.380009	0.207518	0.408914	0.888665						
04618														-5.758298	-7.892370	-1.971717	0.959141	0.086621	-0.269342	-0.194491	0.893245	-0.405322	0.205479	0.441146	0.873595						
04619														-5.800008	-6.777482	-1.652625	0.953248	0.107392	-0.282464	-0.224898	0.876444	-0.425754	0.201842	0.469374	0.859621						
04620														-5.097572	-6.916542	-1.384309	0.947532	0.126148	-0.293718	-0.251278	0.861897	-0.440447	0.197593	0.491142	0.848373						
04621														-4.414471	-6.661411	-0.723447	0.943035	0.140390	-0.301623	-0.270418	0.851572	-0.449110	0.193803	0.505091	0.841026						
04622														-4.568978	-6.452187	-0.326439	0.941453	0.146178	-0.303806	-0.277968	0.846483	-0.454093	0.190788	0.511956	0.837556						
04623														-4.965686	-7.026138	-0.322182	0.941762	0.146511	-0.302685	-0.277737	0.846354	-0.454474	0.189593	0.512073	0.837756						
04624														-4.915772	-7.360189	-1.174399	0.944045	0.143885	-0.296775	-0.271011	0.851237	-0.449387	0.187966	0.504671	0.842601						
04625														-5.594266	-7.484878	-2.055848	0.948915	0.135082	-0.285153	-0.255732	0.858620	-0.444267	0.184825	0.494495	0.849302						
04626														-6.074397	-8.466468	-2.346908	0.956083	0.119445	-0.267654	-0.230606	0.870196	-0.435408	0.180904	0.478009	0.859524						
04627														-5.657039	-9.060014	-2.893492	0.964400	0.096210	-0.246327	-0.196095	0.885121	-0.422027	0.177426	0.455306	0.872477						
04628														-4.746430	-9.184852	-3.750383	0.973116	0.061524	-0.221948	-0.149124	0.902703	-0.403596	0.175523	0.425843	0.887609						
04629														-4.838003	-8.787042	-4.233373	0.980452	0.013782	-0.196274	-0.089051	0.920609	-0.380196	0.175452	0.390243	0.903840						
04630														-5.235041	-8.058960	-3.985870	0.983518	-0.038170	-0.176734	-0.027580	0.934354	-0.355278	0.178693	0.354297	0.917901						
04631														-5.263895	-9.910470	-4.604618	0.982102	-0.085959	-0.167588	0.027522	0.945727	-0.323793	0.186326	0.313386	0.931167						
04632														-4.236787	-10.701181	-6.110695	0.977614	-0.135692	-0.160805	0.085430	0.954416	-0.285992	0.192282	0.265853	0.944643						
04633														-4.322344	-9.451207	-6.937521	0.970248	-0.185670	-0.155391	0.143920	0.958392	-0.246519	0.194697	0.216820	0.956599						
04634														-5.649608	-8.632437	-5.836379	0.960969	-0.225970	-0.159610	0.191641	0.959808	-0.205043	0.199529	0.166453	0.965651						
04635														-6.024566	-9.585802	-5.627443	0.952934	-0.247975	-0.174428	0.220750	0.961875	-0.161447	0.207813	0.115343	0.971344						
04636														-5.339803	-10.105520	-5.740461	0.946940	-0.261126	-0.187398	0.242963	0.963253	-0.114509	0.210413	0.062902	0.975587						
04637														-4.269737	-8.384083	-4.698789	0.941811	-0.270342	-0.199766	0.261678	0.962679	-0.069092	0.210989	0.012797	0.977405						
04638														-3.568565	-8.187640	-3.260011	0.937601	-0.276249	-0.211166	0.276319	0.960604	-0.029782	0.211074	-0.030426	0.976996						
04639														-2.884478	-8.398563	-2.576342	0.932099	-0.288662	-0.218781	0.296749	0.954946	0.004308	0.207681	-0.068938	0.975764						
04640														-3.294387	-8.018352	-1.613194	0.924214	-0.308303	-0.225338	0.323461	0.945672	0.032813	0.202979	-0.103214	0.973728						
04641														-3.281482	-7.418785	-0.954247	0.919063	-0.318800	-0.231710	0.340825	0.938138	0.061117	0.197892	-0.135143	0.970863						
04642														-3.311627	-6.645209	-0.413222	0.915331	-0.325158	-0.237573	0.353354	0.931479	0.086536	0.193156	-0.163156	0.967507						
04643														-3.437582	-6.526543	-0.395688	0.913266	-0.327290	-0.242540	0.360056	0.927025	0.104811	0.190537	-0.183048	0.964463						
04644														-3.747566	-7.000317	-0.763621	0.912157	-0.326849	-0.247265	0.363189	0.924195	0.118142	0.189906	-0.197568	0.961719						
04645														-3.758079	-7.024429	-1.179031	0.912235	-0.324175	-0.250476	0.363095	0.922931	0.127904	0.189708	-0.207625	0.959637						
04646														-3.868418	-7.715713	-1.331712	0.912245	-0.321801	-0.253482	0.362837	0.921973	0.135333	0.190153	-0.215429	0.957827						
04647														-4.020961	-8.519773	-1.535898	0.911060	-0.321193	-0.258465	0.365979	0.918724	0.148341	0.189812	-0.229740	0.954563						
04648														-4.130809	-8.018113	-2.399469	0.912167	-0.316891	-0.259867	0.363715	0.918180	0.157026	0.188845	-0.237751	0.952792						
04649														-4.787496	-7.882646	-2.163255	0.915114	-0.310111	-0.257678	0.356675	0.920650	0.158704	0.188015	-0.237139	0.953108						
04650														-5.315471	-7.574423	-1.197785	0.919154	-0.300826	-0.254282	0.345404	0.925865	0.153197	0.189345	-0.228642	0.954920						
04651														-5.667350	-7.848715	-1.369575	0.926024	-0.283839	-0.248829	0.323823	0.936101	0.137306	0.193956	-0.207725	0.958766						
04652														-6.114553	-9.162414	-1.607120	0.934760	-0.258995	-0.243199	0.291625	0.950320	0.108847	0.202926	-0.172669	0.963850						
04653														-6.329877	-10.919459	-1.202689	0.943480	-0.231198	-0.237474	0.255835	0.963540	0.078356	0.210699	-0.134682	0.968229						
04654														-5.721453	-7.951295	-1.590463	0.951120	-0.207051	-0.229132	0.224842	0.972888	0.054178	0.211702	-0.103048	0.971887						
04655														-5.122137	-5.314954	-3.219932	0.958345	-0.181584	-0.220460	0.189987	0.981633	0.017347	0.213261	-0.058509	0.975242						
04656														-5.674530	-7.605667	-3.583290	0.961487	-0.163459	-0.220962	0.161236	0.986513	-0.028189	0.222589	-0.008524	0.974875						
04657														-6.389439	-10.060455	-2.882684	0.961570	-0.152076	-0.228595	0.141122	0.987946	-0.063625	0.235515	0.028921	0.971440						
04658														-5.180985	-8.025957	-3.224394	0.965208	-0.128263	-0.227863	0.109160	0.989513	-0.094599	0.237607	0.066435	0.969087						
04659														-4.782858	-7.827650	-3.692375	0.968997	-0.102723	-0.224707	0.071847	0.987325	-0.141521	0.236397	0.120989	0.964095						
04660														-5.993534	-10.432098	-3.314329	0.971708	-0.084890	-0.220400	0.041996	0.980405	-0.192463	0.232420	0.177762	0.956233						
04661														-6.185875	-8.781182	-3.045651	0.975478	-0.065880	-0.210005	0.015324	0.972165	-0.233795	0.219562	0.224844	0.949335						
04662														-6.828921	-8.314395	-3.192456	0.978461	-0.040990	-0.202320	-0.018052	0.959342	-0.281667	0.205639	0.279253	0.937939						
04663														-6.975628	-9.177726	-3.060682	0.980217	-0.012609	-0.197525	-0.052826	0.945102	-0.322477	0.190748	0.326532	0.925739						
04664														-6.361176	-8.234270	-2.740512	0.980530	0.015538	-0.195752	-0.086042	0.930071	-0.357163	0.176513	0.367052	0.913299						
04665														-6.132006	-7.384014	-2.797797	0.979616	0.040725	-0.196706	-0.116021	0.914095	-0.388549	0.163984	0.403451	0.900187						
04666														-6.012975	-6.620698	-2.892308	0.977352	0.063233	-0.201951	-0.144055	0.897867	-0.416032	0.155018	0.435702	0.886641						
04667														-5.872026	-6.674094	-2.332040	0.974868	0.077869	-0.208734	-0.164717	0.882777	-0.439970	0.150005	0.463294	0.873417						
04668														-5.786980	-6.545234	-1.709021	0.971844	0.088663	-0.218309	-0.182144	0.870444	-0.457331	0.149477	0.484217	0.862085						
04669														-5.349894	-6.486981	-1.824138	0.968857	0.095980	-0.228262	-0.195561	0.862045	-0.467584	0.151893	0.497661	0.853968						
04670														-5.283472	-6.378634	-1.659165	0.966532	0.097534	-0.237282	-0.202411	0.858196	-0.471731	0.157625	0.503971	0.849216						
04671														-5.102493	-6.370619	-1.150649	0.964616	0.096989	-0.245172	-0.205634	0.858741	-0.469339	0.165019	0.503147	0.848299						
04672														-4.659178	-6.778039	-1.275992	0.963306	0.094592	-0.251186	-0.205057	0.863205	-0.461333	0.173187	0.495912	0.850928						
04673														-4.825923	-7.567943	-1.565058	0.963951	0.085882	-0.251840	-0.194957	0.872095	-0.448824	0.181083	0.481742	0.857399						
04674														-5.001496	-7.896183	-1.686116	0.966185	0.073372	-0.247190	-0.177788	0.883906	-0.432551	0.186755	0.461872	0.867062						
04675														-5.027548	-8.864010	-2.265628	0.969256	0.056901	-0.239384	-0.154971	0.896852	-0.414294	0.191118	0.438655	0.878098						
04676														-4.593491	-10.316931	-3.642514	0.973262	0.028798	-0.227885	-0.119091	0.911614	-0.393417	0.196413	0.410037	0.890669						
04677														-4.923010	-9.410325	-4.971692	0.977403	-0.012689	-0.211005	-0.067501	0.927202	-0.368429	0.200319	0.374347	0.905393						
04678														-5.159094	-7.924962	-4.796181	0.978723	-0.059469	-0.196379	-0.011303	0.939999	-0.340989	0.204875	0.335954	0.919327						
04679														-4.762814	-8.563345	-4.443715	0.976439	-0.101594	-0.190383	0.037690	0.948973	-0.313097	0.212477	0.298544	0.930443						
04680														-4.717904	-11.266462	-5.992684	0.972150	-0.141017	-0.187185	0.084011	0.955320	-0.283384	0.218784	0.259766	0.940561						
04681														-5.298824	-10.716663	-6.870754	0.967042	-0.176815	-0.183212	0.129848	0.961427	-0.242484	0.219019	0.210702	0.952699						
04682														-6.232688	-8.742894	-5.584146	0.961814	-0.202320	-0.184338	0.165233	0.966126	-0.198236	0.218201	0.160208	0.962664						
04683														-5.885562	-9.212692	-4.694725	0.958252	-0.213362	-0.190340	0.185019	0.970252	-0.156139	0.217992	0.114404	0.969222						
04684														-4.922139	-10.042679	-4.856182	0.956567	-0.217892	-0.193654	0.198430	0.973344	-0.115013	0.213552	0.071591	0.974305						
04685														-3.990334	-9.368011	-4.310425	0.954095	-0.226668	-0.195765	0.216040	0.973552	-0.074325	0.207434	0.028620	0.977830						
04686														-3.764467	-8.192740	-3.300093	0.950136	-0.240077	-0.199007	0.237883	0.970655	-0.035226	0.201624	-0.013871	0.979365						
04687														-3.189752	-7.459869	-2.244985	0.944555	-0.258086	-0.202994	0.263292	0.964715	-0.001407	0.196195	-0.052118	0.979179						
04688														-3.386271	-7.297431	-0.978320	0.934808	-0.287958	-0.207881	0.299547	0.953730	0.025903	0.190803	-0.086485	0.977811						
04689														-4.087977	-7.159059	-0.148651	0.927879	-0.305193	-0.214237	0.323181	0.944807	0.053796	0.185994	-0.119154	0.975299						
04690														-3.414796	-6.677281	0.210520	0.924047	-0.311738	-0.221262	0.336714	0.937765	0.084977	0.181001	-0.153025	0.971505						
04691														-2.988074	-6.265105	-0.072268	0.921033	-0.314457	-0.229816	0.346191	0.931321	0.113107	0.178465	-0.183735	0.966639						
04692														-2.967165	-6.630034	-0.485342	0.918976	-0.314735	-0.237541	0.352125	0.926144	0.135151	0.177460	-0.207844	0.961930						
04693														-3.209408	-7.407967	-0.234682	0.917282	-0.314532	-0.244260	0.356434	0.921990	0.151293	0.177619	-0.225841	0.957835						
04694														-3.501060	-8.061901	-0.660069	0.916512	-0.313037	-0.249026	0.358420	0.919078	0.163802	0.177599	-0.239382	0.954544						
04695														-3.865531	-8.593052	-1.172952	0.915160	-0.316014	-0.250234	0.362923	0.916116	0.170347	0.175412	-0.246710	0.953082						
04696														-4.709877	-8.974488	-1.292759	0.914482	-0.320779	-0.246623	0.367072	0.914132	0.172110	0.170236	-0.247920	0.953706						
04697														-5.050632	-9.041513	-1.349790	0.916627	-0.320471	-0.238942	0.364704	0.915167	0.171643	0.163665	-0.244475	0.955744						
04698														-5.323303	-8.109495	-1.376247	0.920296	-0.316739	-0.229635	0.357814	0.918796	0.166683	0.158193	-0.235564	0.958898						
04699														-5.491592	-7.516734	-1.668051	0.926172	-0.306235	-0.220059	0.343008	0.926592	0.154184	0.156689	-0.218283	0.963224						
04700														-5.994608	-7.460565	-1.860849	0.934947	-0.286334	-0.209493	0.317786	0.938412	0.135632	0.157755	-0.193383	0.968358						
04701														-5.968193	-7.504726	-2.142413	0.944772	-0.261885	-0.197034	0.287079	0.951326	0.112095	0.158088	-0.162468	0.973967						
04702														-5.957993	-8.057634	-2.457420	0.951933	-0.242297	-0.187392	0.261505	0.961425	0.085302	0.159495	-0.130206	0.978574						
04703														-6.149970	-8.814393	-2.821585	0.956031	-0.228765	-0.183499	0.242677	0.968430	0.057023	0.164661	-0.099047	0.981364						
04704														-6.370918	-9.123683	-2.771339	0.960012	-0.212718	-0.182010	0.221594	0.974688	0.029668	0.171092	-0.068814	0.982849						
04705														-6.304894	-8.494092	-2.779552	0.965415	-0.187512	-0.181141	0.191338	0.981517	0.003722	0.177095	-0.038252	0.983450						
04706														-6.070492	-7.823777	-3.257819	0.971200	-0.154264	-0.181584	0.152012	0.988028	-0.026343	0.183473	-0.002019	0.983023						
04707														-6.092288	-9.028554	-2.990018	0.975687	-0.118516	-0.184360	0.107938	0.991936	-0.066429	0.190746	0.044914	0.980611						
04708														-6.138770	-11.187100	-2.214918	0.978392	-0.086559	-0.187766	0.067578	0.992147	-0.105246	0.195401	0.090283	0.976559						
04709														-5.549476	-9.986668	-2.710779	0.980670	-0.053981	-0.188076	0.028993	0.990670	-0.133164	0.193509	0.125137	0.973085						
04710														-5.938682	-8.415979	-3.473714	0.981141	-0.028604	-0.191163	-0.003886	0.985871	-0.167464	0.193252	0.165048	0.967167						
04711														-6.827495	-8.697583	-3.240653	0.981037	-0.014780	-0.193258	-0.026478	0.977521	-0.209170	0.192005	0.210321	0.958592						
04712														-6.250882	-8.000365	-3.383716	0.981072	0.001583	-0.193635	-0.050395	0.967595	-0.247425	0.186969	0.252501	0.949361						
04713														-5.599749	-7.230492	-3.794269	0.980199	0.017420	-0.197249	-0.074115	0.955993	-0.283873	0.183623	0.292871	0.938354						
04714														-5.275928	-6.391187	-3.455029	0.978911	0.026030	-0.202623	-0.091444	0.942766	-0.320672	0.182679	0.332438	0.925264						
04715														-5.540658	-5.931646	-2.719514	0.977119	0.032136	-0.210251	-0.107472	0.927642	-0.357674	0.183543	0.372086	0.909870						
04716														-5.647693	-6.572470	-2.284620	0.973847	0.043674	-0.222969	-0.130452	0.910955	-0.391336	0.186024	0.410188	0.892828						
04717														-5.241831	-6.942657	-2.044034	0.969241	0.057347	-0.239339	-0.155860	0.895640	-0.416578	0.190472	0.441068	0.877029						
04718														-4.929420	-7.253624	-2.128175	0.964699	0.069257	-0.254084	-0.178373	0.881633	-0.436928	0.193749	0.466826	0.862864						
04719														-4.936826	-7.596096	-1.699937	0.961123	0.077607	-0.264990	-0.194974	0.870295	-0.452296	0.195518	0.486378	0.851592						
04720														-5.254788	-7.345086	-1.656405	0.959120	0.081616	-0.270976	-0.203920	0.863239	-0.461774	0.196228	0.498154	0.844593						
04721														-5.577320	-7.133524	-1.467626	0.958447	0.083367	-0.272818	-0.207620	0.859706	-0.466690	0.195637	0.503941	0.841291						
04722														-5.261723	-7.681431	-1.353930	0.959556	0.081603	-0.269432	-0.204381	0.860105	-0.467384	0.193600	0.503548	0.841997						
04723														-5.186711	-7.327542	-1.898151	0.962690	0.074469	-0.260158	-0.192271	0.864744	-0.463951	0.190420	0.496661	0.846798						
04724														-5.719763	-7.167515	-2.029949	0.966418	0.062834	-0.249176	-0.174527	0.872200	-0.456954	0.188619	0.485096	0.853876						
04725														-5.451092	-8.217694	-2.309984	0.969826	0.047928	-0.239042	-0.153426	0.881970	-0.445634	0.189470	0.468863	0.862710						
04726														-4.719247	-7.913000	-3.121744	0.973916	0.024602	-0.225573	-0.121939	0.895108	-0.428849	0.191362	0.445169	0.874760						
04727														-4.086560	-6.555559	-2.879396	0.977618	-0.008593	-0.210212	-0.080217	0.908463	-0.410194	0.194495	0.417876	0.887441						
04728														-3.674243	-6.968893	-2.785140	0.978801	-0.049256	-0.198800	-0.033413	0.919243	-0.392271	0.202067	0.390598	0.898110						
04729														-3.578509	-8.713938	-4.272656	0.976815	-0.098234	-0.190216	0.020355	0.927101	-0.374258	0.213114	0.361709	0.907606						
04730														-3.798509	-10.203152	-6.118470	0.971067	-0.152078	-0.184122	0.079153	0.932396	-0.352666	0.225308	0.327888	0.917456						
04731														-4.940848	-11.363146	-6.990296	0.962121	-0.201369	-0.183777	0.135741	0.938446	-0.317638	0.236428	0.280660	0.930232						
04732														-5.779185	-10.407640	-6.986357	0.953461	-0.235910	-0.187772	0.181166	0.946044	-0.268662	0.241020	0.222141	0.944755						
04733														-6.248832	-9.557737	-6.336449	0.947741	-0.252872	-0.194534	0.209591	0.953191	-0.217942	0.240539	0.165780	0.956377						
04734														-6.222252	-11.318590	-5.721606	0.945512	-0.254262	-0.203367	0.222625	0.960662	-0.166033	0.237583	0.111712	0.964922						
04735														-4.528540	-11.899630	-5.334555	0.944312	-0.254080	-0.209088	0.236005	0.965765	-0.107703	0.229295	0.052359	0.971948						
04736														-3.788249	-10.194534	-4.747627	0.942207	-0.264012	-0.206259	0.257659	0.964519	-0.057578	0.214142	0.001105	0.976802						
04737														-3.437330	-8.169565	-3.767703	0.938629	-0.282208	-0.198330	0.284273	0.958563	-0.018593	0.195359	-0.038928	0.979959						
04738														-3.196708	-7.138972	-2.679305	0.932524	-0.303340	-0.195919	0.311549	0.950157	0.011775	0.182582	-0.072019	0.980549						
04739														-3.533143	-6.968776	-1.450947	0.922357	-0.331645	-0.198166	0.344973	0.937923	0.035981	0.173931	-0.101549	0.979508						
04740														-4.327868	-7.380709	-0.476994	0.915906	-0.346381	-0.202820	0.364896	0.929035	0.061189	0.167232	-0.130051	0.977302						
04741														-3.882318	-7.245695	-0.181002	0.913084	-0.349408	-0.210220	0.373962	0.923060	0.090073	0.162573	-0.160859	0.973496						
04742														-3.282319	-6.745967	-0.430373	0.912159	-0.347912	-0.216618	0.377883	0.918569	0.115909	0.158652	-0.187584	0.969351						
04743														-3.067860	-6.431302	-1.012658	0.911488	-0.346824	-0.221141	0.380939	0.914577	0.135770	0.155162	-0.207994	0.965745						
04744														-3.092979	-6.036176	-0.982896	0.910410	-0.347326	-0.224764	0.384532	0.910836	0.150042	0.152610	-0.223028	0.962792						
04745														-3.210656	-6.716185	-0.837873	0.909542	-0.346808	-0.229035	0.386481	0.908455	0.159194	0.152858	-0.233312	0.960313						
04746														-3.741275	-7.521645	-0.998015	0.908238	-0.347338	-0.233368	0.389106	0.906183	0.165615	0.153949	-0.241223	0.958181						
04747														-4.433218	-7.904635	-1.702317	0.908852	-0.343807	-0.236187	0.386883	0.906466	0.169234	0.155912	-0.245186	0.956857						
04748														-5.450929	-9.391493	-2.159162	0.912030	-0.334769	-0.236918	0.377441	0.911113	0.165566	0.160432	-0.240423	0.957318						
04749														-6.824942	-10.930837	-1.740894	0.916823	-0.325048	-0.231905	0.364392	0.918577	0.153086	0.163262	-0.224857	0.960617						
04750														-5.689195	-8.646822	-1.877584	0.925583	-0.311931	-0.214466	0.344025	0.929525	0.132776	0.157934	-0.196677	0.967665						
04751														-5.171387	-7.026917	-2.313547	0.933861	-0.298184	-0.197458	0.322531	0.940744	0.104755	0.154521	-0.161513	0.974698						
04752														-5.955326	-7.627381	-2.391016	0.939208	-0.285312	-0.191011	0.304289	0.949370	0.078136	0.159047	-0.131509	0.978473						
04753														-6.491656	-7.797519	-3.362806	0.943075	-0.273749	-0.188867	0.288400	0.955959	0.054479	0.165635	-0.105847	0.980490						
04754														-6.683423	-7.589832	-3.655109	0.949540	-0.253470	-0.184732	0.263165	0.964297	0.029585	0.170638	-0.076708	0.982343						
04755														-6.614067	-7.998276	-2.698783	0.958614	-0.218092	-0.183017	0.220976	0.975268	-0.004738	0.179524	-0.035901	0.983098						
04756														-6.138833	-9.547210	-2.296036	0.967483	-0.172365	-0.185111	0.166739	0.984943	-0.045665	0.190195	0.013315	0.981656						
04757														-5.386022	-10.082462	-2.716367	0.974417	-0.126402	-0.185833	0.112074	0.989995	-0.085727	0.194810	0.062707	0.978834						
04758														-5.111088	-9.619800	-3.066723	0.978807	-0.091730	-0.183091	0.069602	0.989859	-0.123831	0.192594	0.108463	0.975266						
04759														-5.495891	-8.865345	-2.933093	0.981395	-0.062611	-0.181502	0.032615	0.985960	-0.163767	0.189207	0.154800	0.969659						
04760														-5.866630	-7.722888	-2.600047	0.982718	-0.033685	-0.182019	-0.003773	0.979455	-0.201629	0.185071	0.198831	0.962401						
04761														-6.265727	-7.038909	-3.409975	0.982443	-0.002560	-0.186546	-0.042801	0.970144	-0.238721	0.181587	0.242514	0.953002						
04762														-6.272880	-6.679914	-3.482255	0.980087	0.028183	-0.196556	-0.082240	0.958600	-0.272622	0.180735	0.283358	0.941829						
04763														-5.656304	-6.834211	-3.175628	0.975471	0.060842	-0.211552	-0.125005	0.944157	-0.304864	0.181190	0.323831	0.928603						
04764														-5.187617	-7.234545	-3.160700	0.969518	0.088113	-0.228627	-0.163563	0.927496	-0.336152	0.182431	0.363300	0.913637						
04765														-5.238289	-7.250613	-2.737704	0.963281	0.107764	-0.245920	-0.195015	0.910374	-0.364949	0.184551	0.399506	0.897962						
04766														-5.204802	-7.189394	-1.899429	0.957225	0.123598	-0.261618	-0.222096	0.893390	-0.390547	0.185456	0.431946	0.882626						
04767														-5.704705	-7.698090	-1.508446	0.950807	0.137431	-0.277630	-0.246846	0.877601	-0.410955	0.187171	0.459271	0.868353						
04768														-5.720051	-9.032870	-0.959947	0.942996	0.153610	-0.295231	-0.273708	0.862608	-0.425430	0.189319	0.481986	0.855481						
04769														-5.462426	-9.164500	-0.961228	0.938739	0.165374	-0.302358	-0.290206	0.852521	-0.434727	0.185874	0.495841	0.848288						
04770														-5.331852	-7.123083	-1.947678	0.940433	0.166259	-0.296553	-0.290107	0.847240	-0.444996	0.177267	0.504521	0.845006						
04771														-5.816374	-5.989397	-2.063722	0.946494	0.153180	-0.284052	-0.274038	0.846355	-0.456712	0.170450	0.510116	0.843047						
04772														-6.511800	-5.623375	-1.255199	0.951093	0.138518	-0.276106	-0.257560	0.849069	-0.461243	0.170542	0.509799	0.843220						
04773														-5.887101	-7.206952	-0.850259	0.952912	0.127427	-0.275173	-0.246179	0.854932	-0.456603	0.177071	0.502845	0.846046						
04774														-4.157697	-10.314454	-2.220644	0.954925	0.115369	-0.273510	-0.231536	0.866079	-0.443056	0.185766	0.486413	0.853753						
04775														-3.683087	-10.106023	-4.058654	0.962409	0.088030	-0.256942	-0.194909	0.882684	-0.427644	0.189153	0.461649	0.866661						
04776														-4.784506	-8.937225	-4.001267	0.971506	0.048141	-0.232075	-0.143493	0.898782	-0.414246	0.188643	0.435744	0.880080						
04777														-5.289090	-8.669500	-3.853554	0.977704	0.004925	-0.209928	-0.089679	0.913764	-0.396224	0.189873	0.406216	0.893832						
04778														-4.919368	-9.805838	-4.540064	0.979766	-0.042894	-0.195494	-0.033403	0.928020	-0.371029	0.197337	0.370052	0.907810						
04779														-4.286142	-10.970202	-5.876320	0.977862	-0.097206	-0.185301	0.029935	0.941427	-0.335887	0.207097	0.322904	0.923495						
04780														-4.812578	-9.289921	-6.654504	0.972622	-0.153769	-0.174247	0.097552	0.950679	-0.294436	0.210928	0.269376	0.939652						
04781														-5.960755	-7.686974	-5.600833	0.964658	-0.200065	-0.171492	0.152868	0.954992	-0.254209	0.214632	0.219009	0.951824						
04782														-5.921932	-8.472298	-4.411563	0.957276	-0.225744	-0.180728	0.186800	0.959811	-0.209447	0.220746	0.166738	0.960973						
04783														-4.817471	-9.915792	-4.897276	0.950837	-0.242450	-0.192684	0.213248	0.963749	-0.160352	0.224576	0.111379	0.968070						
04784														-3.966558	-8.835050	-4.500074	0.944231	-0.260688	-0.201169	0.243048	0.963945	-0.108346	0.222161	0.053410	0.973546						
04785														-3.908189	-7.204723	-3.415589	0.936456	-0.276837	-0.215433	0.270720	0.960909	-0.058015	0.223072	-0.003994	0.974794						
04786														-3.912152	-7.896447	-2.381095	0.929035	-0.289396	-0.230528	0.294151	0.955653	-0.014252	0.224430	-0.054569	0.972961						
04787														-3.345343	-8.683255	-1.650409	0.921210	-0.303720	-0.243161	0.319000	0.947421	0.025150	0.222737	-0.100737	0.969660						
04788														-3.303198	-8.978722	-1.192658	0.912525	-0.319627	-0.255218	0.345119	0.936572	0.061032	0.219523	-0.143774	0.964955						
04789														-3.277790	-8.687652	-1.400414	0.902217	-0.339678	-0.265750	0.375132	0.922095	0.094960	0.212791	-0.185366	0.959354						
04790														-3.999509	-7.871394	-0.660733	0.891836	-0.359975	-0.273947	0.404057	0.906204	0.124630	0.203388	-0.221840	0.953635						
04791														-4.100305	-7.142113	-0.241054	0.886913	-0.367841	-0.279425	0.419578	0.894527	0.154195	0.193234	-0.253998	0.947705						
04792														-3.644175	-6.737150	-0.573757	0.886264	-0.367420	-0.282027	0.425377	0.886588	0.181705	0.183279	-0.281007	0.942042						
04793														-3.367464	-6.898386	-0.899665	0.885778	-0.367225	-0.283801	0.430252	0.879014	0.205469	0.174012	-0.304105	0.936611						
04794														-3.634362	-7.147383	-1.057062	0.883849	-0.370902	-0.285030	0.437784	0.870548	0.224703	0.164789	-0.323385	0.931808						
04795														-4.255511	-7.700137	-1.194635	0.882275	-0.374956	-0.284603	0.443932	0.863845	0.238108	0.156573	-0.336421	0.928604						
04796														-5.142477	-8.423443	-1.293440	0.883005	-0.375441	-0.281685	0.444469	0.861702	0.244779	0.150829	-0.341341	0.927759						
04797														-5.720112	-8.225107	-1.403698	0.888376	-0.369413	-0.272620	0.435532	0.865950	0.245849	0.145255	-0.337141	0.930181						
04798														-6.042698	-7.679665	-1.298631	0.897686	-0.355725	-0.260037	0.416516	0.877603	0.237334	0.143784	-0.321361	0.935977						
04799														-6.252936	-7.966575	-1.202807	0.910365	-0.333623	-0.244807	0.387159	0.895564	0.219256	0.146092	-0.294382	0.944456						
04800														-6.267408	-8.494040	-1.209537	0.925293	-0.303899	-0.226887	0.348507	0.917298	0.192632	0.149583	-0.257313	0.954681						
04801														-5.914677	-8.363581	-1.101513	0.939148	-0.272021	-0.209777	0.307454	0.937993	0.160130	0.153210	-0.214882	0.964548						
04802														-5.257593	-7.793730	-1.388963	0.950407	-0.240168	-0.197601	0.267087	0.955801	0.122921	0.159345	-0.169602	0.972545						
04803														-5.134195	-7.992901	-2.341888	0.957234	-0.215779	-0.192725	0.234624	0.968728	0.080734	0.169277	-0.122499	0.977926						
04804														-5.834369	-8.676065	-3.052598	0.962197	-0.193690	-0.191469	0.204482	0.978128	0.038123	0.179898	-0.075834	0.980758						
04805														-6.522251	-8.700228	-3.068378	0.966157	-0.171535	-0.192654	0.174700	0.984622	-0.000572	0.189789	-0.033104	0.981267						
04806														-6.516224	-8.120670	-2.966853	0.970648	-0.139504	-0.195911	0.134411	0.990153	-0.039120	0.199439	0.011639	0.979841						
04807														-6.033049	-8.336266	-3.342339	0.974354	-0.095908	-0.203556	0.080370	0.993279	-0.083291	0.210177	0.064795	0.975514						
04808														-6.370498	-9.520387	-4.012625	0.974739	-0.056738	-0.216020	0.028535	0.990904	-0.131507	0.221516	0.122021	0.967492						
04809														-6.683672	-10.485538	-3.727428	0.973518	-0.027497	-0.226952	-0.014707	0.983151	-0.182202	0.228139	0.180714	0.956711						
04810														-6.469314	-10.051647	-3.555895	0.972602	-0.000888	-0.232476	-0.053870	0.971915	-0.229085	0.226150	0.235331	0.945238						
04811														-6.210116	-8.881153	-3.300653	0.971190	0.026827	-0.236791	-0.093658	0.956656	-0.275749	0.219130	0.289982	0.931607						
04812														-5.852176	-8.637415	-2.701224	0.969311	0.047766	-0.241153	-0.125694	0.939325	-0.319171	0.211275	0.339687	0.916502						
04813														-5.789295	-7.558093	-1.931019	0.966723	0.067633	-0.246723	-0.155315	0.921507	-0.355953	0.203283	0.382428	0.901346						
04814														-5.592935	-7.088768	-1.495072	0.962964	0.086897	-0.255242	-0.184385	0.902925	-0.388238	0.196728	0.420922	0.885507						
04815														-5.005088	-7.016167	-0.879014	0.958587	0.104407	-0.264971	-0.210751	0.885828	-0.413392	0.191558	0.452115	0.871147						
04816														-4.805959	-7.094908	-0.663930	0.954823	0.117750	-0.272852	-0.231200	0.871188	-0.433102	0.186708	0.476619	0.859054						
04817														-5.121615	-6.735677	-0.628614	0.952146	0.126204	-0.278371	-0.244563	0.860857	-0.446222	0.183323	0.492947	0.850527						
04818														-5.295976	-6.173891	-0.797153	0.950664	0.130712	-0.281340	-0.251616	0.855361	-0.452821	0.181458	0.501271	0.846050						
04819														-5.218341	-6.197079	-0.797776	0.950710	0.130320	-0.281366	-0.251574	0.854641	-0.454201	0.181276	0.502598	0.845301						
04820														-5.176904	-6.635963	-1.082540	0.952580	0.124240	-0.277770	-0.243397	0.858950	-0.450514	0.182618	0.496759	0.848458						
04821														-5.468890	-6.793777	-1.412345	0.956396	0.112099	-0.269703	-0.226490	0.867691	-0.442510	0.184414	0.484300	0.855246						
04822														-5.992964	-7.323401	-1.839150	0.960792	0.096575	-0.259909	-0.204766	0.879167	-0.430275	0.186949	0.466625	0.864472						
04823														-5.753697	-8.752065	-3.150531	0.965842	0.077816	-0.247170	-0.178058	0.892294	-0.414859	0.188265	0.444699	0.875671						
04824														-5.234293	-9.980677	-3.792070	0.971071	0.055129	-0.232340	-0.146056	0.906882	-0.395262	0.188915	0.417762	0.888699						
04825														-5.303604	-9.514288	-4.402931	0.976052	0.026838	-0.215874	-0.107452	0.922329	-0.371166	0.189146	0.385473	0.903125						
04826														-5.535988	-8.699444	-4.272298	0.979460	-0.005286	-0.201569	-0.065979	0.936225	-0.345152	0.190539	0.351362	0.916646						
04827														-5.129579	-9.201763	-3.668293	0.980379	-0.036031	-0.193803	-0.027639	0.948316	-0.316123	0.195177	0.315277	0.928712						
04828														-4.283832	-10.616405	-4.850528	0.979398	-0.072412	-0.188509	0.015856	0.958192	-0.285687	0.201315	0.276812	0.939599						
04829														-4.514741	-10.051694	-5.411240	0.976048	-0.117964	-0.182797	0.069668	0.965465	-0.251046	0.206099	0.232298	0.950558						
04830														-5.638840	-9.321033	-4.472103	0.969353	-0.162107	-0.184599	0.121724	0.969600	-0.212271	0.213397	0.183296	0.959617						
04831														-5.790960	-10.089423	-4.355939	0.961352	-0.195894	-0.193463	0.163697	0.971675	-0.170443	0.221372	0.132186	0.966189						
04832														-5.270363	-10.635108	-5.396210	0.953290	-0.226063	-0.200333	0.203426	0.970762	-0.127433	0.223284	0.080728	0.971405						
04833														-4.696514	-8.446603	-5.440275	0.945523	-0.252387	-0.205639	0.240847	0.967280	-0.079762	0.219041	0.025889	0.975372						
04834														-4.678669	-6.494946	-4.270786	0.938817	-0.269188	-0.214851	0.267432	0.962836	-0.037768	0.217033	-0.022001	0.975916						
04835														-4.355195	-6.772123	-2.788695	0.933050	-0.282292	-0.223001	0.288922	0.957348	-0.003018	0.214342	-0.061614	0.974813						
04836														-3.479161	-7.152496	-1.696864	0.928294	-0.292791	-0.229222	0.306452	0.951541	0.025629	0.210611	-0.094037	0.973037						
04837														-3.242185	-7.705307	-2.382011	0.923755	-0.303196	-0.233985	0.322765	0.945184	0.049491	0.206154	-0.121240	0.970980						
04838														-3.129443	-7.130645	-2.396007	0.921476	-0.305881	-0.239412	0.331064	0.940844	0.072182	0.203171	-0.145775	0.968231						
04839														-3.551628	-7.052626	-1.752411	0.921642	-0.299997	-0.246125	0.330659	0.939104	0.093532	0.203078	-0.167587	0.964715						
04840														-3.752599	-7.785650	-1.203536	0.923272	-0.290645	-0.251185	0.325916	0.938776	0.111709	0.203339	-0.185003	0.961471						
04841														-3.457722	-8.412550	-1.298172	0.925765	-0.282334	-0.251489	0.320802	0.938560	0.127243	0.200113	-0.198475	0.959459						
04842														-3.005398	-8.452043	-1.598811	0.928476	-0.275218	-0.249375	0.315658	0.938574	0.139421	0.195686	-0.208166	0.958318						
04843														-3.434647	-7.996368	-1.218271	0.931079	-0.269654	-0.245721	0.310618	0.939210	0.146293	0.191334	-0.212536	0.958238						
04844														-4.013525	-7.459202	-0.644611	0.934553	-0.262262	-0.240478	0.302227	0.941763	0.147450	0.187802	-0.210478	0.959390						
04845														-4.234047	-7.385124	-0.533756	0.939263	-0.252124	-0.232848	0.289704	0.946212	0.144064	0.184002	-0.202771	0.961783						
04846														-4.314947	-7.548807	-0.787652	0.944297	-0.240969	-0.224135	0.275553	0.951304	0.138171	0.179926	-0.192235	0.964714						
04847														-4.650133	-7.988579	-0.672764	0.948545	-0.229634	-0.218017	0.261557	0.956293	0.130731	0.178468	-0.181029	0.967149						
04848														-5.493804	-9.057960	-0.459468	0.952632	-0.215165	-0.214933	0.244336	0.962282	0.119634	0.181085	-0.166483	0.969274						
04849														-6.094180	-10.553924	-0.927942	0.957365	-0.196004	-0.212215	0.221339	0.969758	0.102850	0.185639	-0.145436	0.971796						
04850														-6.287073	-10.138697	-1.345799	0.962572	-0.177384	-0.204914	0.197929	0.976577	0.084390	0.185145	-0.121790	0.975135						
04851														-6.061889	-8.193895	-2.190315	0.966969	-0.162266	-0.196570	0.178094	0.981825	0.065598	0.182353	-0.098439	0.978293						
04852														-6.161479	-6.980658	-2.430985	0.969636	-0.151040	-0.192335	0.161962	0.985890	0.042300	0.183232	-0.072167	0.980417						
04853														-6.242553	-7.399175	-2.947645	0.971622	-0.139007	-0.191384	0.144609	0.989367	0.015554	0.187187	-0.042788	0.981392						
04854														-6.158136	-7.583500	-4.040307	0.973730	-0.121127	-0.192817	0.121768	0.992522	-0.008568	0.192413	-0.015136	0.981197						
04855														-5.778695	-7.562061	-4.073956	0.975874	-0.094053	-0.197040	0.088464	0.995392	-0.036994	0.199611	0.018670	0.979697						
04856														-6.152515	-8.642735	-3.578297	0.977282	-0.066759	-0.201152	0.052825	0.995868	-0.073867	0.205252	0.061563	0.976771						
04857														-6.346464	-9.170548	-3.202017	0.978473	-0.037950	-0.202854	0.015608	0.993740	-0.110625	0.205783	0.105078	0.972940						
04858														-6.452935	-8.925022	-3.560877	0.979238	-0.005817	-0.202629	-0.025007	0.988486	-0.149228	0.201164	0.151197	0.967818						
04859														-6.202863	-8.665651	-3.403125	0.978677	0.026928	-0.203632	-0.065931	0.980094	-0.187265	0.194535	0.196698	0.960971						
04860														-5.930794	-8.627340	-2.736923	0.976489	0.057753	-0.207688	-0.104898	0.968986	-0.223747	0.188325	0.240273	0.952262						
04861														-5.810225	-8.059657	-2.209450	0.973093	0.087009	-0.213354	-0.141651	0.956215	-0.256100	0.181730	0.279430	0.942811						
04862														-5.218638	-7.793656	-1.919231	0.969079	0.112184	-0.219772	-0.174214	0.941822	-0.287437	0.174741	0.316837	0.932245						
04863														-4.788882	-8.157197	-1.510256	0.965251	0.132207	-0.225416	-0.201223	0.926378	-0.318329	0.166735	0.352626	0.920790						
04864														-4.817098	-8.275926	-1.324079	0.962287	0.147953	-0.228283	-0.222087	0.911887	-0.345166	0.157100	0.382847	0.910356						
04865														-4.473622	-7.185407	-1.065371	0.961034	0.158833	-0.226241	-0.235182	0.899904	-0.367235	0.145266	0.406133	0.902194						
04866														-4.365087	-6.227893	-1.387810	0.961113	0.163960	-0.222214	-0.241570	0.889077	-0.388827	0.133814	0.427387	0.894111						
04867														-4.810235	-5.870620	-2.368478	0.961960	0.162853	-0.219344	-0.242567	0.878516	-0.411548	0.125676	0.449098	0.884600						
04868														-6.168329	-6.905995	-2.574017	0.964194	0.156277	-0.214259	-0.237100	0.869910	-0.432482	0.118799	0.467798	0.875815						
04869														-6.439806	-7.100307	-2.418059	0.965645	0.152943	-0.210091	-0.233878	0.863900	-0.446069	0.113274	0.479880	0.869991						
04870														-6.981739	-8.274138	-2.873444	0.966341	0.152228	-0.207394	-0.232783	0.860611	-0.452948	0.109534	0.485980	0.867079						
04871														-6.942075	-8.092349	-2.634236	0.967924	0.149740	-0.201743	-0.227565	0.862811	-0.451410	0.106472	0.482840	0.869212						
04872														-6.462897	-7.171160	-2.657996	0.970844	0.141449	-0.193531	-0.215476	0.868704	-0.446008	0.105034	0.474705	0.873855						
04873														-5.885363	-7.109234	-2.148508	0.974242	0.126170	-0.186906	-0.197500	0.877433	-0.437155	0.108842	0.462809	0.879751						
04874														-4.869482	-8.929331	-2.221680	0.977834	0.102638	-0.182500	-0.172538	0.888785	-0.424607	0.118622	0.446684	0.886793						
04875														-3.740740	-11.142122	-3.557767	0.982169	0.067849	-0.175331	-0.135077	0.903339	-0.407103	0.130762	0.423527	0.896396						
04876														-4.032816	-10.633547	-4.937038	0.986514	0.022823	-0.162080	-0.084124	0.920136	-0.382456	0.140407	0.390933	0.909647						
04877														-5.052995	-8.843790	-4.754710	0.988600	-0.022170	-0.148922	-0.032166	0.935166	-0.352746	0.147087	0.353515	0.923793						
04878														-5.255436	-7.765666	-4.156383	0.988028	-0.060643	-0.141856	0.012050	0.947030	-0.320918	0.153804	0.315367	0.936423						
04879														-4.312880	-8.027690	-3.974828	0.985420	-0.094068	-0.141772	0.049989	0.956556	-0.287231	0.162632	0.275956	0.947311						
04880														-3.314808	-9.169463	-4.921137	0.980689	-0.129151	-0.146864	0.088889	0.963242	-0.253503	0.174205	0.235553	0.956121						
04881														-3.834853	-10.250722	-5.450109	0.973877	-0.168450	-0.152274	0.133024	0.966699	-0.218626	0.184031	0.192659	0.963854						
04882														-5.053218	-9.850796	-4.956034	0.965881	-0.203956	-0.159612	0.175247	0.968475	-0.177045	0.190690	0.143032	0.971174						
04883														-5.456505	-7.909715	-4.131805	0.959751	-0.225355	-0.167609	0.204627	0.969860	-0.132285	0.192368	0.092664	0.976938						
04884														-4.404023	-7.328356	-3.917751	0.955959	-0.234988	-0.175851	0.221800	0.970789	-0.091510	0.192218	0.048476	0.980154						
04885														-3.501387	-7.941682	-3.621960	0.953054	-0.241014	-0.183306	0.234689	0.970469	-0.055783	0.191337	0.010145	0.981472						
04886														-3.008186	-7.774602	-3.131044	0.948852	-0.249327	-0.193689	0.250743	0.967894	-0.017570	0.191851	-0.031895	0.980906						
04887														-2.957455	-7.316588	-2.150477	0.943080	-0.259735	-0.207695	0.268352	0.963220	0.013940	0.196435	-0.068882	0.978094						
04888														-3.527335	-7.930224	-1.787091	0.936065	-0.273338	-0.221516	0.288187	0.956855	0.037094	0.201819	-0.098560	0.974451						
04889														-3.898038	-8.479576	-1.677056	0.929202	-0.287137	-0.232669	0.307727	0.949775	0.056840	0.204662	-0.124415	0.970894						
04890														-4.280769	-8.587391	-1.157331	0.923349	-0.298991	-0.240896	0.324955	0.942712	0.075490	0.204525	-0.147984	0.967611						
04891														-4.511110	-8.573372	-0.756094	0.921617	-0.301079	-0.244894	0.331985	0.938423	0.095649	0.201016	-0.169453	0.964820						
04892														-3.644639	-8.037593	-0.560131	0.922427	-0.296954	-0.246875	0.332100	0.936245	0.114697	0.197076	-0.187786	0.962236						
04893														-3.289552	-7.797659	-0.767879	0.922420	-0.297658	-0.246050	0.335372	0.933323	0.128195	0.191486	-0.200768	0.960742						
04894														-3.799840	-8.024047	-0.506227	0.921550	-0.302022	-0.243984	0.340753	0.930353	0.135390	0.186101	-0.207907	0.960282						
04895														-4.120663	-8.149633	-0.319988	0.922027	-0.304381	-0.239205	0.342870	0.928962	0.139535	0.179740	-0.210671	0.960891						
04896														-4.151827	-8.180897	-0.094841	0.924030	-0.304329	-0.231412	0.341120	0.929599	0.139579	0.172642	-0.207915	0.962791						
04897														-4.325804	-8.411741	-0.089133	0.925692	-0.306202	-0.222113	0.340042	0.930820	0.133964	0.165727	-0.199537	0.965774						
04898														-4.437370	-8.773174	-0.290257	0.926984	-0.308742	-0.213024	0.339234	0.932377	0.124872	0.160065	-0.188019	0.969034						
04899														-4.399390	-8.598593	-0.066514	0.928617	-0.310396	-0.203286	0.337468	0.934285	0.115011	0.154228	-0.175404	0.972341						
04900														-4.888068	-8.419196	0.210727	0.930101	-0.311596	-0.194473	0.335640	0.936072	0.105425	0.149190	-0.163329	0.975226						
04901														-4.971711	-8.199617	-0.035645	0.933199	-0.307225	-0.186418	0.328591	0.939527	0.096529	0.145489	-0.151336	0.977717						
04902														-4.471092	-8.054810	-0.890923	0.939087	-0.293487	-0.178831	0.312216	0.946022	0.086969	0.143654	-0.137505	0.980028						
04903														-4.198145	-7.679235	-1.091262	0.945724	-0.275433	-0.172463	0.291510	0.953574	0.075624	0.143627	-0.121794	0.982109						
04904														-3.800947	-7.764398	-0.813264	0.952501	-0.254055	-0.167925	0.266968	0.961896	0.059035	0.146528	-0.101061	0.984031						
04905														-4.572541	-9.342036	-0.483193	0.958541	-0.231464	-0.166201	0.239742	0.970331	0.031326	0.154019	-0.069872	0.985594						
04906														-5.435167	-11.160795	-1.421423	0.966237	-0.198607	-0.164141	0.201540	0.979479	0.001247	0.160526	-0.034286	0.986436						
04907														-5.277205	-9.442692	-3.152203	0.974391	-0.163150	-0.154738	0.161460	0.986599	-0.023511	0.156501	-0.002075	0.987676						
04908														-4.459423	-6.463717	-3.855117	0.978967	-0.143185	-0.145336	0.136572	0.989127	-0.054556	0.151567	0.033560	0.987877						
04909														-5.388379	-7.466575	-3.952095	0.979854	-0.139277	-0.143133	0.126553	0.987449	-0.094497	0.154498	0.074479	0.985182						
04910														-7.273162	-9.023864	-4.771776	0.980261	-0.136249	-0.143263	0.119513	0.985603	-0.119599	0.157496	0.100117	0.982432						
04911														-8.037385	-9.114229	-4.782606	0.983820	-0.110005	-0.141410	0.091067	0.986780	-0.134058	0.154288	0.119011	0.980832						
04912														-6.594143	-10.230288	-5.105812	0.988316	-0.064830	-0.137945	0.043722	0.987583	-0.150888	0.146014	0.143094	0.978879						
04913														-4.827472	-9.134746	-4.876588	0.990832	-0.020772	-0.133495	-0.001901	0.985868	-0.167515	0.135089	0.166232	0.976790						
04914														-4.540692	-6.665571	-4.076452	0.991277	0.012124	-0.131234	-0.037487	0.980566	-0.192572	0.126349	0.195812	0.972468						
04915														-4.685655	-6.496548	-3.272021	0.990204	0.034990	-0.135173	-0.065498	0.971371	-0.228359	0.123313	0.234976	0.964147						
04916														-4.577011	-7.236805	-3.407641	0.988194	0.053545	-0.143546	-0.090320	0.960413	-0.263531	0.123753	0.273385	0.953911						
04917														-4.297055	-6.881240	-3.416356	0.985932	0.068855	-0.152307	-0.111586	0.949564	-0.293047	0.124447	0.305920	0.943889						
04918														-4.331804	-6.958177	-3.174700	0.983001	0.084932	-0.162775	-0.134106	0.937668	-0.320615	0.125398	0.336994	0.933118						
04919														-5.146395	-7.675341	-3.002683	0.979047	0.105486	-0.174184	-0.160886	0.925050	-0.344090	0.124832	0.364904	0.922639						
04920														-5.258993	-7.906125	-3.055304	0.973711	0.133590	-0.184501	-0.193722	0.911740	-0.362217	0.119828	0.388437	0.913651						
04921														-4.952473	-8.106034	-3.139418	0.967870	0.162790	-0.191642	-0.225778	0.898122	-0.377361	0.110688	0.408505	0.906020						
04922														-4.857104	-8.010074	-3.112206	0.962561	0.187351	-0.195900	-0.251846	0.885401	-0.390690	0.100254	0.425399	0.899436						
04923														-5.243221	-7.879094	-2.882814	0.958026	0.206584	-0.198770	-0.271908	0.874486	-0.401671	0.090843	0.438858	0.893952						
04924														-5.431596	-7.474764	-2.634788	0.953864	0.222422	-0.201675	-0.288403	0.865526	-0.409498	0.083473	0.448769	0.889741						
04925														-5.380449	-7.241241	-2.705386	0.949884	0.235371	-0.205722	-0.302551	0.857750	-0.415605	0.078637	0.457018	0.885975						
04926														-5.265988	-7.798486	-2.657889	0.947190	0.242697	-0.209595	-0.311417	0.852084	-0.420681	0.076494	0.463736	0.882665						
04927														-5.377958	-7.704572	-2.378109	0.946628	0.244353	-0.210206	-0.313470	0.849745	-0.423875	0.075047	0.467145	0.880990						
04928														-5.391349	-7.450663	-2.198805	0.947770	0.242003	-0.207766	-0.310294	0.850351	-0.424995	0.073824	0.467266	0.881029						
04929														-5.576730	-7.179604	-2.016157	0.949613	0.236740	-0.205400	-0.304281	0.853489	-0.423047	0.075154	0.464230	0.882520						
04930														-5.508754	-7.172812	-2.304746	0.952654	0.226619	-0.202715	-0.293447	0.859836	-0.417816	0.079616	0.457520	0.885628						
04931														-5.239867	-7.238793	-2.710355	0.957473	0.209740	-0.198126	-0.275375	0.869244	-0.410590	0.086103	0.447688	0.890035						
04932														-5.367482	-7.494563	-3.192548	0.963134	0.187553	-0.192864	-0.251851	0.880629	-0.401328	0.094572	0.435105	0.895399						
04933														-5.911190	-7.156221	-3.397684	0.967634	0.166804	-0.189372	-0.229742	0.892767	-0.387538	0.104422	0.418501	0.902193						
04934														-6.206821	-7.226008	-2.984174	0.970319	0.150930	-0.188946	-0.212815	0.904011	-0.370776	0.114848	0.399982	0.909299						
04935														-5.759314	-7.703919	-2.241421	0.971879	0.138139	-0.190704	-0.198972	0.914871	-0.351315	0.125940	0.379380	0.916630						
04936														-4.733372	-8.524836	-2.160019	0.973440	0.124639	-0.192039	-0.183641	0.925990	-0.329877	0.136711	0.356382	0.924285						
04937														-4.613041	-8.736445	-3.001792	0.976112	0.106165	-0.189562	-0.161475	0.938229	-0.306027	0.145363	0.329326	0.932960						
04938														-5.270505	-8.916314	-3.348834	0.979196	0.081489	-0.185836	-0.133128	0.949159	-0.285263	0.153142	0.304068	0.940261						
04939														-5.896734	-11.064399	-2.881829	0.981123	0.055425	-0.185272	-0.103672	0.959492	-0.261968	0.163248	0.276231	0.947126						
04940														-4.875752	-11.464394	-4.156235	0.983134	0.027428	-0.180818	-0.069887	0.969998	-0.232850	0.169006	0.241560	0.955555						
04941														-4.574932	-9.676436	-6.122882	0.985782	-0.010666	-0.167690	-0.024259	0.978493	-0.204849	0.166269	0.206005	0.964322						
04942														-5.197332	-8.518336	-5.020253	0.985649	-0.060890	-0.157443	0.031467	0.982605	-0.183021	0.165848	0.175440	0.970420						
04943														-5.298842	-8.784017	-3.638886	0.981781	-0.104770	-0.158521	0.079224	0.983986	-0.159669	0.172711	0.144201	0.974360						
04944														-4.061453	-9.787314	-4.117705	0.974732	-0.149494	-0.165980	0.127471	0.982436	-0.136272	0.183437	0.111671	0.976668						
04945														-4.125819	-10.303785	-4.332325	0.965091	-0.193605	-0.176399	0.176071	0.978179	-0.110297	0.193904	0.075388	0.978120						
04946														-4.477645	-9.740216	-4.138562	0.954847	-0.229741	-0.188379	0.218834	0.972713	-0.077079	0.200946	0.032375	0.979067						
04947														-4.243581	-8.305392	-3.305539	0.945420	-0.256978	-0.200358	0.254119	0.966332	-0.040314	0.203972	-0.012801	0.978893						
04948														-3.588996	-7.395561	-2.965197	0.938639	-0.272705	-0.211161	0.277451	0.960711	-0.007411	0.204886	-0.051631	0.977423						
04949														-3.126533	-7.680530	-2.826880	0.933753	-0.282393	-0.219906	0.294071	0.955539	0.021609	0.204027	-0.084845	0.975282						
04950														-3.258003	-7.797117	-2.322002	0.929211	-0.290241	-0.228749	0.309692	0.949332	0.053481	0.201636	-0.120537	0.972015						
04951														-3.423563	-7.088331	-1.864113	0.925585	-0.296749	-0.235015	0.323665	0.942362	0.084824	0.196298	-0.154578	0.968283						
04952														-3.227232	-6.977308	-1.107155	0.922289	-0.303797	-0.238936	0.336105	0.935644	0.107726	0.190833	-0.179662	0.965041						
04953														-3.713023	-8.083425	-0.947785	0.921093	-0.305938	-0.240810	0.342171	0.931182	0.125771	0.185760	-0.198244	0.962389						
04954														-4.069912	-8.366340	-0.915073	0.920983	-0.305726	-0.241499	0.345096	0.927847	0.141451	0.180829	-0.213614	0.960036						
04955														-4.128129	-8.077023	-0.508267	0.922669	-0.302275	-0.239398	0.343171	0.926833	0.152363	0.175826	-0.222735	0.958892						
04956														-3.976641	-8.003123	-0.723479	0.925861	-0.296041	-0.234821	0.337084	0.927910	0.159243	0.170750	-0.226591	0.958906						
04957														-4.085808	-8.277282	-0.941302	0.928247	-0.293018	-0.229126	0.333565	0.928323	0.164170	0.164598	-0.228818	0.959453						
04958														-4.310899	-8.176612	-0.618234	0.930386	-0.291971	-0.221663	0.331614	0.928074	0.169442	0.156247	-0.231153	0.960289						
04959														-4.310079	-7.667149	-0.566678	0.932901	-0.289014	-0.214864	0.327478	0.929033	0.172207	0.149845	-0.231015	0.961342						
04960														-4.031387	-7.624905	-0.737909	0.936159	-0.282504	-0.209280	0.319661	0.931764	0.172142	0.146369	-0.228051	0.962584						
04961														-4.190878	-7.822181	0.243652	0.938926	-0.276162	-0.205310	0.311971	0.934911	0.169162	0.145231	-0.222881	0.963967						
04962														-4.289924	-7.793403	0.591722	0.941916	-0.267946	-0.202482	0.302269	0.939119	0.163367	0.146381	-0.215082	0.965563						
04963														-4.038678	-7.590376	-0.353033	0.945550	-0.257033	-0.199672	0.289283	0.944832	0.153648	0.149164	-0.203043	0.967741						
04964														-3.973327	-8.199418	-0.913488	0.948698	-0.246572	-0.197927	0.276039	0.951163	0.138170	0.154192	-0.185718	0.970430						
04965														-4.171064	-8.236180	-0.598732	0.951099	-0.237623	-0.197347	0.263802	0.957235	0.118783	0.160682	-0.165035	0.973111						
04966														-4.240718	-8.184334	-0.396238	0.953991	-0.225588	-0.197511	0.247356	0.964430	0.093220	0.169456	-0.137787	0.975858						
04967														-4.456611	-8.526912	-1.298932	0.956989	-0.209757	-0.200434	0.226255	0.972026	0.063035	0.181605	-0.105673	0.977677						
04968														-5.316722	-9.219523	-2.431517	0.960976	-0.189349	-0.201674	0.198375	0.979799	0.025338	0.192803	-0.064357	0.979125						
04969														-6.540474	-12.141372	-1.817042	0.965798	-0.161972	-0.202482	0.161752	0.986672	-0.017746	0.202658	-0.015613	0.979125						
04970														-6.532663	-12.353127	-0.461617	0.972103	-0.128783	-0.196037	0.121658	0.991410	-0.048018	0.200537	0.022829	0.979420						
04971														-3.953098	-6.246040	-3.111169	0.978787	-0.091265	-0.183433	0.079981	0.994473	-0.068014	0.188626	0.051900	0.980677						
04972														-4.361274	-4.732057	-5.422097	0.981689	-0.065775	-0.178773	0.045119	0.992077	-0.117253	0.185069	0.107040	0.976879						
04973														-6.703550	-9.281235	-4.272607	0.981790	-0.056629	-0.181333	0.025385	0.985084	-0.170192	0.188266	0.162490	0.968583						
04974														-7.032862	-9.834816	-3.861675	0.982938	-0.033696	-0.180824	-0.002892	0.980125	-0.198361	0.183914	0.195499	0.963305						
04975														-5.849253	-7.291784	-3.759696	0.983555	0.001171	-0.180604	-0.043037	0.972693	-0.228070	0.175406	0.232092	0.956748						
04976														-5.786009	-9.525654	-4.880930	0.983478	0.029026	-0.178684	-0.076715	0.960873	-0.266155	0.163967	0.275466	0.947224						
04977														-5.822446	-8.805292	-4.231212	0.983683	0.048922	-0.173133	-0.099123	0.950461	-0.294615	0.150144	0.306969	0.939802						
04978														-6.164155	-6.965720	-3.660325	0.982898	0.070203	-0.170244	-0.123373	0.937373	-0.325747	0.136713	0.341180	0.930003						
04979														-5.968059	-7.676923	-4.174377	0.981059	0.091637	-0.170665	-0.148519	0.921449	-0.358990	0.124362	0.377537	0.917605						
04980														-5.692475	-7.350432	-4.536595	0.978832	0.108679	-0.173429	-0.169002	0.907148	-0.385384	0.115442	0.406536	0.906312						
04981														-6.320753	-5.706733	-4.126580	0.975013	0.126456	-0.182642	-0.192172	0.892575	-0.407898	0.111441	0.432804	0.894573						
04982														-6.146172	-5.804552	-3.510918	0.969046	0.146549	-0.198677	-0.220787	0.874522	-0.431816	0.110465	0.462315	0.879808						
04983														-5.461775	-7.368943	-2.956036	0.962292	0.163004	-0.217769	-0.247761	0.855690	-0.454323	0.112286	0.491146	0.863810						
04984														-4.851798	-7.726113	-2.899137	0.956675	0.173796	-0.233598	-0.267564	0.841158	-0.469960	0.114816	0.512102	0.851216						
04985														-5.177765	-6.811861	-2.554112	0.953118	0.178552	-0.244306	-0.279023	0.831015	-0.481207	0.117101	0.526814	0.841876						
04986														-5.565871	-6.674973	-1.723528	0.950139	0.181098	-0.253849	-0.287659	0.823272	-0.489361	0.120364	0.537983	0.834318						
04987														-5.487383	-6.848126	-1.589975	0.947191	0.184054	-0.262591	-0.295520	0.818919	-0.491976	0.124491	0.543596	0.830063						
04988														-4.901272	-7.135147	-1.887683	0.945943	0.183843	-0.267196	-0.297642	0.819343	-0.489985	0.128845	0.543027	0.829772						
04989														-5.116255	-7.215475	-2.110537	0.946789	0.179897	-0.266885	-0.293155	0.824291	-0.484359	0.132856	0.536825	0.833168						
04990														-5.816345	-7.022467	-2.475320	0.948764	0.173979	-0.263777	-0.284706	0.832796	-0.474756	0.137075	0.525530	0.839660						
04991														-6.183316	-7.166838	-2.704122	0.952136	0.163861	-0.258043	-0.270801	0.843747	-0.463420	0.141787	0.511117	0.847736						
04992														-6.086497	-7.373822	-2.556004	0.955523	0.152643	-0.252339	-0.255457	0.855942	-0.449561	0.147365	0.494028	0.856866						
04993														-5.580749	-9.006281	-3.156489	0.959394	0.138307	-0.245833	-0.236656	0.868912	-0.434725	0.153482	0.475250	0.866360						
04994														-5.722701	-9.607466	-4.022733	0.965191	0.116712	-0.234063	-0.207555	0.886335	-0.413922	0.159148	0.448094	0.879706						
04995														-6.101059	-8.693532	-3.954508	0.972151	0.086125	-0.217958	-0.167067	0.906900	-0.386809	0.164352	0.412450	0.896032						
04996														-5.661188	-8.883211	-3.649884	0.978035	0.049200	-0.202553	-0.120816	0.925669	-0.358524	0.169857	0.375121	0.911281						
04997														-5.572149	-10.127597	-5.020983	0.981668	0.010888	-0.190290	-0.074099	0.941634	-0.328383	0.175608	0.336463	0.925178						
04998														-5.834714	-9.778396	-5.933341	0.983532	-0.028459	-0.178481	-0.024938	0.956712	-0.289967	0.179007	0.289643	0.940246						
04999														-5.305723	-8.611738	-5.415980	0.983330	-0.063857	-0.170246	0.020275	0.968972	-0.246338	0.180694	0.238779	0.954114						
05000														-4.605498	-7.880176	-5.109751	0.981736	-0.093218	-0.165848	0.058282	0.977183	-0.204244	0.181104	0.190848	0.964769						
