// General information: 
//  MT Manager version: 2022.2.0 
//  XDA version: 2022.2.0 build 7381 rev 124627 built on 2023-07-19
// Device information: 
//  DeviceId: 00B4D4C2
//  ProductCode: MTW2-3A7G6
//  Firmware Version: 4.6.0
//  Hardware Version: 2.0.0
// Device settings: 
//  Filter Profile: human(46.1)
//  Option Flags: Orientation Smoother Disabled, Position/Velocity Smoother Disabled, Continuous Zero Rotation Update Disabled, AHS Disabled, ICC Disabled
// Coordinate system: ENU
PacketCounter	SampleTimeFine	Year	Month	Day	Second	UTC_Nano	UTC_Year	UTC_Month	UTC_Day	UTC_Hour	UTC_Minute	UTC_Second	UTC_Valid	Acc_X	Acc_Y	Acc_Z	Mat[1][1]	Mat[2][1]	Mat[3][1]	Mat[1][2]	Mat[2][2]	Mat[3][2]	Mat[1][3]	Mat[2][3]	Mat[3][3]	Latitude	Longitude	Altitude	Vel_E	Vel_N	Vel_U
04221														-1.427529	-9.483712	-1.779064	0.999809	-0.019276	-0.003322	0.019231	0.999731	-0.012972	0.003571	0.012905	0.999910						
04222														-1.415694	-9.482658	-1.789953	0.999808	-0.019354	-0.003030	0.019310	0.999717	-0.013923	0.003298	0.013862	0.999898						
04223														-1.384856	-9.581713	-1.744162	0.999805	-0.019556	-0.002617	0.019514	0.999698	-0.014946	0.002908	0.014892	0.999885						
04224														-1.373273	-9.536874	-1.699714	0.999803	-0.019725	-0.002143	0.019689	0.999680	-0.015893	0.002456	0.015847	0.999871						
04225														-1.323867	-9.528866	-1.632584	0.999797	-0.020070	-0.001736	0.020038	0.999654	-0.017054	0.002078	0.017015	0.999853						
04226														-1.430496	-9.520388	-1.637506	0.999782	-0.020819	-0.001385	0.020790	0.999615	-0.018368	0.001767	0.018336	0.999830						
04227														-1.480372	-9.570471	-1.624672	0.999768	-0.021500	-0.001023	0.021476	0.999574	-0.019752	0.001447	0.019726	0.999804						
04228														-1.456065	-9.599148	-1.636372	0.999754	-0.022192	-0.000650	0.022174	0.999535	-0.020930	0.001114	0.020910	0.999781						
04229														-1.460390	-9.584681	-1.639947	0.999734	-0.023041	-0.000239	0.023031	0.999497	-0.021779	0.000740	0.021768	0.999763						
04230														-1.490239	-9.535446	-1.690647	0.999711	-0.024052	0.000176	0.024050	0.999460	-0.022396	0.000362	0.022394	0.999749						
04231														-1.472515	-9.578413	-1.816545	0.999696	-0.024663	0.000527	0.024669	0.999431	-0.023000	0.000040	0.023006	0.999735						
04232														-1.459929	-9.604635	-1.891225	0.999689	-0.024913	0.000832	0.024926	0.999413	-0.023489	-0.000246	0.023503	0.999724						
04233														-1.416522	-9.480750	-1.829184	0.999689	-0.024923	0.001065	0.024941	0.999410	-0.023618	-0.000476	0.023638	0.999720						
04234														-1.336584	-9.449449	-1.777831	0.999666	-0.025793	0.001338	0.025817	0.999389	-0.023574	-0.000729	0.023601	0.999721						
04235														-1.335345	-9.461534	-1.817628	0.999634	-0.026990	0.001686	0.027023	0.999354	-0.023689	-0.001046	0.023726	0.999718						
04236														-1.312992	-9.483099	-1.825220	0.999605	-0.028022	0.001938	0.028061	0.999310	-0.024345	-0.001254	0.024390	0.999702						
04237														-1.386435	-9.587989	-1.812814	0.999588	-0.028633	0.002202	0.028679	0.999280	-0.024855	-0.001489	0.024907	0.999689						
04238														-1.482200	-9.601760	-1.669482	0.999575	-0.029037	0.002468	0.029089	0.999268	-0.024838	-0.001745	0.024900	0.999688						
04239														-1.480618	-9.569051	-1.570139	0.999569	-0.029223	0.002644	0.029279	0.999267	-0.024677	-0.001921	0.024744	0.999692						
04240														-1.471353	-9.535547	-1.711759	0.999562	-0.029465	0.002754	0.029525	0.999258	-0.024729	-0.002023	0.024799	0.999690						
04241														-1.400264	-9.499885	-1.851695	0.999573	-0.029098	0.002803	0.029159	0.999262	-0.025008	-0.002074	0.025079	0.999683						
04242														-1.326464	-9.543083	-1.813607	0.999587	-0.028592	0.002756	0.028653	0.999270	-0.025261	-0.002032	0.025330	0.999677						
04243														-1.305413	-9.541698	-1.678911	0.999593	-0.028407	0.002802	0.028469	0.999277	-0.025195	-0.002084	0.025265	0.999679						
04244														-1.353425	-9.568661	-1.670976	0.999595	-0.028302	0.002844	0.028365	0.999279	-0.025255	-0.002127	0.025326	0.999677						
04245														-1.366638	-9.570141	-1.749226	0.999606	-0.027918	0.002845	0.027981	0.999289	-0.025250	-0.002138	0.025319	0.999677						
04246														-1.418598	-9.501785	-1.750930	0.999610	-0.027767	0.002839	0.027830	0.999300	-0.024992	-0.002143	0.025061	0.999684						
04247														-1.418839	-9.500549	-1.785049	0.999601	-0.028089	0.002952	0.028154	0.999296	-0.024793	-0.002254	0.024866	0.999688						
04248														-1.342158	-9.487385	-1.803571	0.999594	-0.028320	0.003006	0.028386	0.999289	-0.024806	-0.002301	0.024882	0.999688						
04249														-1.257167	-9.503982	-1.760613	0.999593	-0.028376	0.002921	0.028440	0.999281	-0.025066	-0.002208	0.025139	0.999682						
04250														-1.338654	-9.505238	-1.760952	0.999596	-0.028274	0.002880	0.028338	0.999278	-0.025323	-0.002162	0.025394	0.999675						
04251														-1.435917	-9.595300	-1.713618	0.999592	-0.028440	0.002793	0.028503	0.999263	-0.025714	-0.002059	0.025783	0.999665						
04252														-1.504470	-9.593186	-1.673430	0.999572	-0.029131	0.002815	0.029195	0.999234	-0.026060	-0.002053	0.026131	0.999656						
04253														-1.510925	-9.535769	-1.732777	0.999559	-0.029555	0.002925	0.029622	0.999218	-0.026198	-0.002149	0.026273	0.999653						
04254														-1.449824	-9.508709	-1.804088	0.999563	-0.029427	0.002973	0.029495	0.999221	-0.026218	-0.002199	0.026294	0.999652						
04255														-1.385678	-9.500263	-1.828571	0.999581	-0.028791	0.002932	0.028858	0.999240	-0.026194	-0.002176	0.026268	0.999653						
04256														-1.409185	-9.490573	-1.802407	0.999608	-0.027838	0.002872	0.027904	0.999275	-0.025919	-0.002148	0.025989	0.999660						
04257														-1.450439	-9.478915	-1.866885	0.999634	-0.026926	0.002796	0.026989	0.999302	-0.025842	-0.002098	0.025908	0.999662						
04258														-1.461000	-9.591066	-1.900363	0.999656	-0.026091	0.002779	0.026155	0.999324	-0.025839	-0.002103	0.025903	0.999662						
04259														-1.459372	-9.524960	-1.762328	0.999667	-0.025656	0.002907	0.025722	0.999342	-0.025574	-0.002249	0.025640	0.999669						
04260														-1.427737	-9.513976	-1.728933	0.999672	-0.025426	0.003080	0.025496	0.999352	-0.025390	-0.002432	0.025460	0.999673						
04261														-1.460025	-9.544671	-1.768746	0.999684	-0.024942	0.003101	0.025012	0.999373	-0.025071	-0.002473	0.025141	0.999681						
04262														-1.438131	-9.511639	-1.793237	0.999699	-0.024331	0.003022	0.024398	0.999396	-0.024749	-0.002418	0.024815	0.999689						
04263														-1.345256	-9.520475	-1.754264	0.999706	-0.024045	0.003046	0.024113	0.999409	-0.024503	-0.002455	0.024569	0.999695						
04264														-1.325902	-9.520824	-1.758404	0.999691	-0.024667	0.003124	0.024736	0.999395	-0.024445	-0.002519	0.024514	0.999696						
04265														-1.367451	-9.531007	-1.763070	0.999676	-0.025241	0.003145	0.025311	0.999377	-0.024580	-0.002523	0.024652	0.999693						
04266														-1.380974	-9.556356	-1.742657	0.999669	-0.025531	0.003215	0.025602	0.999374	-0.024415	-0.002590	0.024489	0.999697						
04267														-1.434002	-9.572021	-1.750325	0.999655	-0.026055	0.003311	0.026128	0.999366	-0.024196	-0.002679	0.024275	0.999702						
04268														-1.490579	-9.527439	-1.770843	0.999643	-0.026486	0.003485	0.026562	0.999358	-0.024053	-0.002845	0.024137	0.999705						
04269														-1.496687	-9.514847	-1.762473	0.999645	-0.026385	0.003740	0.026467	0.999368	-0.023742	-0.003111	0.023833	0.999711						
04270														-1.472272	-9.462089	-1.752223	0.999658	-0.025861	0.003849	0.025944	0.999389	-0.023433	-0.003240	0.023525	0.999718						
04271														-1.377753	-9.529430	-1.677232	0.999671	-0.025375	0.003793	0.025457	0.999405	-0.023285	-0.003200	0.023373	0.999722						
04272														-1.297680	-9.576190	-1.684116	0.999667	-0.025524	0.003878	0.025608	0.999398	-0.023426	-0.003278	0.023518	0.999718						
04273														-1.262811	-9.587911	-1.675796	0.999659	-0.025796	0.004043	0.025884	0.999390	-0.023451	-0.003436	0.023548	0.999717						
04274														-1.240374	-9.526125	-1.673217	0.999649	-0.026170	0.004144	0.026260	0.999381	-0.023408	-0.003528	0.023509	0.999717						
04275														-1.232139	-9.552986	-1.682560	0.999614	-0.027470	0.004174	0.027561	0.999343	-0.023517	-0.003525	0.023623	0.999715						
04276														-1.317068	-9.549852	-1.730413	0.999570	-0.029005	0.004321	0.029099	0.999298	-0.023599	-0.003633	0.023715	0.999712						
04277														-1.404183	-9.530116	-1.787763	0.999538	-0.030053	0.004487	0.030151	0.999266	-0.023629	-0.003773	0.023753	0.999711						
04278														-1.437003	-9.511904	-1.765583	0.999523	-0.030540	0.004523	0.030639	0.999249	-0.023702	-0.003796	0.023829	0.999709						
04279														-1.448873	-9.547057	-1.704788	0.999521	-0.030630	0.004461	0.030728	0.999245	-0.023773	-0.003729	0.023899	0.999707						
04280														-1.499602	-9.600846	-1.702909	0.999522	-0.030591	0.004430	0.030687	0.999250	-0.023606	-0.003705	0.023731	0.999712						
04281														-1.532055	-9.566270	-1.807302	0.999528	-0.030399	0.004445	0.030494	0.999266	-0.023184	-0.003737	0.023309	0.999721						
04282														-1.473342	-9.469739	-1.810637	0.999552	-0.029607	0.004392	0.029700	0.999299	-0.022806	-0.003714	0.022927	0.999730						
04283														-1.419456	-9.491820	-1.763007	0.999587	-0.028402	0.004295	0.028492	0.999338	-0.022616	-0.003650	0.022729	0.999735						
04284														-1.332279	-9.545448	-1.742284	0.999617	-0.027358	0.004274	0.027448	0.999371	-0.022439	-0.003657	0.022548	0.999739						
04285														-1.326994	-9.572461	-1.689912	0.999638	-0.026583	0.004218	0.026671	0.999395	-0.022319	-0.003623	0.022423	0.999742						
04286														-1.427862	-9.594808	-1.714922	0.999653	-0.026009	0.004086	0.026093	0.999417	-0.022039	-0.003511	0.022138	0.999749						
04287														-1.475806	-9.508434	-1.763370	0.999667	-0.025476	0.003983	0.025556	0.999441	-0.021563	-0.003431	0.021657	0.999760						
04288														-1.432406	-9.456992	-1.782079	0.999685	-0.024802	0.003924	0.024880	0.999464	-0.021295	-0.003394	0.021386	0.999766						
04289														-1.349349	-9.522277	-1.740938	0.999712	-0.023678	0.003794	0.023753	0.999494	-0.021152	-0.003291	0.021236	0.999769						
04290														-1.278941	-9.528838	-1.673704	0.999738	-0.022607	0.003662	0.022678	0.999523	-0.020941	-0.003186	0.021019	0.999774						
04291														-1.279881	-9.543895	-1.639434	0.999738	-0.022613	0.003515	0.022682	0.999523	-0.020963	-0.003039	0.021037	0.999774						
04292														-1.336160	-9.542293	-1.719024	0.999722	-0.023333	0.003431	0.023400	0.999505	-0.021050	-0.002939	0.021125	0.999773						
04293														-1.395222	-9.547310	-1.710101	0.999709	-0.023878	0.003339	0.023944	0.999491	-0.021101	-0.002833	0.021174	0.999772						
04294														-1.441581	-9.533886	-1.692669	0.999699	-0.024314	0.003250	0.024377	0.999480	-0.021127	-0.002734	0.021200	0.999772						
04295														-1.469663	-9.533840	-1.684561	0.999688	-0.024776	0.003280	0.024840	0.999466	-0.021239	-0.002752	0.021314	0.999769						
04296														-1.467031	-9.513597	-1.711047	0.999679	-0.025129	0.003265	0.025194	0.999454	-0.021391	-0.002726	0.021467	0.999766						
04297														-1.439946	-9.476545	-1.755387	0.999674	-0.025336	0.003181	0.025398	0.999448	-0.021422	-0.002636	0.021496	0.999765						
04298														-1.423322	-9.533223	-1.701574	0.999665	-0.025701	0.003157	0.025763	0.999436	-0.021550	-0.002602	0.021624	0.999763						
04299														-1.417559	-9.551237	-1.717773	0.999654	-0.026107	0.003103	0.026169	0.999418	-0.021889	-0.002529	0.021963	0.999756						
04300														-1.427139	-9.528970	-1.719639	0.999645	-0.026464	0.003175	0.026528	0.999401	-0.022222	-0.002585	0.022298	0.999748						
04301														-1.424918	-9.521839	-1.751182	0.999641	-0.026605	0.003217	0.026670	0.999390	-0.022545	-0.002615	0.022622	0.999741						
04302														-1.458118	-9.518290	-1.697308	0.999636	-0.026770	0.003273	0.026837	0.999383	-0.022673	-0.002664	0.022753	0.999738						
04303														-1.490083	-9.528387	-1.705723	0.999633	-0.026872	0.003362	0.026942	0.999378	-0.022767	-0.002748	0.022850	0.999735						
04304														-1.490056	-9.526683	-1.743253	0.999641	-0.026563	0.003433	0.026635	0.999383	-0.022907	-0.002822	0.022990	0.999732						
04305														-1.465772	-9.516390	-1.734587	0.999658	-0.025938	0.003465	0.026011	0.999394	-0.023126	-0.002863	0.023208	0.999727						
04306														-1.399025	-9.517581	-1.720184	0.999670	-0.025452	0.003468	0.025526	0.999402	-0.023344	-0.002872	0.023424	0.999721						
04307														-1.368934	-9.525597	-1.725963	0.999677	-0.025153	0.003538	0.025230	0.999404	-0.023548	-0.002944	0.023629	0.999716						
04308														-1.354450	-9.535232	-1.750213	0.999679	-0.025074	0.003568	0.025152	0.999399	-0.023873	-0.002968	0.023955	0.999709						
04309														-1.363810	-9.482625	-1.819355	0.999680	-0.025048	0.003636	0.025130	0.999387	-0.024377	-0.003024	0.024461	0.999696						
04310														-1.368537	-9.535479	-1.777261	0.999677	-0.025122	0.003715	0.025207	0.999370	-0.024964	-0.003086	0.025050	0.999681						
04311														-1.381689	-9.563670	-1.628508	0.999675	-0.025212	0.003764	0.025299	0.999359	-0.025321	-0.003124	0.025408	0.999672						
04312														-1.388597	-9.566877	-1.555210	0.999673	-0.025300	0.003752	0.025388	0.999352	-0.025508	-0.003105	0.025594	0.999668						
04313														-1.399381	-9.584801	-1.625822	0.999674	-0.025270	0.003727	0.025358	0.999346	-0.025763	-0.003074	0.025849	0.999661						
04314														-1.425174	-9.575719	-1.744682	0.999671	-0.025385	0.003684	0.025472	0.999337	-0.026012	-0.003021	0.026097	0.999655						
04315														-1.383051	-9.508302	-1.741649	0.999668	-0.025482	0.003700	0.025570	0.999331	-0.026132	-0.003031	0.026218	0.999652						
04316														-1.337637	-9.541201	-1.795732	0.999659	-0.025852	0.003666	0.025940	0.999316	-0.026348	-0.002983	0.026434	0.999646						
04317														-1.361773	-9.513847	-1.843311	0.999649	-0.026220	0.003661	0.026308	0.999298	-0.026672	-0.002959	0.026759	0.999638						
04318														-1.373037	-9.533590	-1.818195	0.999644	-0.026433	0.003715	0.026523	0.999284	-0.026970	-0.003000	0.027059	0.999629						
04319														-1.453918	-9.528718	-1.786292	0.999641	-0.026512	0.003757	0.026604	0.999279	-0.027077	-0.003037	0.027167	0.999626						
04320														-1.521863	-9.512139	-1.776686	0.999641	-0.026523	0.003750	0.026616	0.999276	-0.027170	-0.003027	0.027261	0.999624						
04321														-1.650648	-9.505026	-1.827156	0.999668	-0.025540	0.003404	0.025625	0.999293	-0.027516	-0.002698	0.027595	0.999616						
04322														-1.629823	-9.387599	-1.874560	0.999733	-0.022955	0.002529	0.023016	0.999346	-0.027889	-0.001887	0.027940	0.999608						
04323														-1.488478	-9.592132	-1.950095	0.999807	-0.019628	0.001202	0.019654	0.999408	-0.028226	-0.000647	0.028244	0.999601						
04324														-1.244479	-9.695629	-1.916685	0.999867	-0.016292	0.000035	0.016286	0.999481	-0.027789	0.000418	0.027786	0.999614						
04325														-1.196173	-9.686731	-1.731521	0.999898	-0.014254	-0.000554	0.014234	0.999538	-0.026840	0.000937	0.026830	0.999640						
04326														-1.213925	-9.578585	-1.785431	0.999942	-0.010719	-0.001438	0.010679	0.999618	-0.025479	0.001710	0.025462	0.999674						
04327														-1.292300	-9.568826	-1.912868	0.999980	-0.005539	-0.002992	0.005465	0.999697	-0.023996	0.003124	0.023979	0.999708						
04328														-1.207905	-9.698000	-1.752571	0.999987	-0.002533	-0.004362	0.002437	0.999759	-0.021816	0.004417	0.021805	0.999752						
04329														-1.184479	-9.819452	-1.810731	0.999986	-0.000678	-0.005309	0.000575	0.999814	-0.019268	0.005321	0.019265	0.999800						
04330														-1.097424	-9.698355	-1.530537	0.999982	0.001371	-0.005911	-0.001461	0.999881	-0.015383	0.005889	0.015391	0.999864						
04331														-1.121881	-9.596208	-1.458691	0.999974	0.002993	-0.006537	-0.003067	0.999930	-0.011444	0.006502	0.011463	0.999913						
04332														-1.234100	-9.522017	-1.824939	0.999958	0.005796	-0.007120	-0.005853	0.999951	-0.007975	0.007074	0.008017	0.999943						
04333														-1.600281	-9.785289	-1.838273	0.999918	0.010056	-0.007937	-0.010092	0.999939	-0.004501	0.007891	0.004581	0.999958						
04334														-1.799377	-9.398045	-1.511637	0.999839	0.015261	-0.009426	-0.015258	0.999884	0.000397	0.009431	-0.000254	0.999955						
04335														-1.687027	-8.913685	-1.451478	0.999797	0.016906	-0.010937	-0.016874	0.999853	0.003036	0.010986	-0.002850	0.999936						
04336														-1.699697	-9.035298	-2.122183	0.999733	0.019312	-0.012677	-0.019287	0.999812	0.002063	0.012715	-0.001818	0.999918						
04337														-1.590488	-9.316645	-2.169843	0.999600	0.024386	-0.014303	-0.024366	0.999702	0.001576	0.014337	-0.001226	0.999896						
04338														-1.363067	-9.930640	-1.524297	0.999491	0.027842	-0.015601	-0.027820	0.999612	0.001605	0.015639	-0.001170	0.999877						
04339														-0.887139	-10.386445	-1.555009	0.999576	0.024344	-0.015952	-0.024328	0.999703	0.001163	0.015976	-0.000774	0.999872						
04340														-1.523298	-10.659452	-1.096983	0.999763	0.014644	-0.016126	-0.014583	0.999886	0.003883	0.016181	-0.003647	0.999862						
04341														-2.692327	-9.981327	-0.431086	0.999784	0.008581	-0.018909	-0.008367	0.999900	0.011371	0.019005	-0.011210	0.999757						
04342														-2.763603	-9.215187	0.072583	0.999661	0.012115	-0.023048	-0.011673	0.999747	0.019219	0.023275	-0.018943	0.999550						
04343														-2.272815	-8.984699	-0.719518	0.999406	0.022452	-0.026155	-0.021827	0.999475	0.023959	0.026679	-0.023374	0.999371						
04344														-1.502051	-9.024542	-2.101211	0.999168	0.029665	-0.027975	-0.028915	0.999222	0.026835	0.028750	-0.026004	0.999248						
04345														-0.981250	-9.354671	-2.514563	0.999030	0.032676	-0.029505	-0.031769	0.999023	0.030719	0.030480	-0.029752	0.999092						
04346														-0.760076	-9.831229	-1.265698	0.998899	0.035341	-0.030836	-0.034180	0.998716	0.037387	0.032118	-0.036292	0.998825						
04347														-0.787005	-10.239707	-0.072574	0.998857	0.036197	-0.031209	-0.034743	0.998339	0.045950	0.032820	-0.044813	0.998456						
04348														-1.090784	-10.698773	0.150981	0.998927	0.034902	-0.030437	-0.033115	0.997805	0.057346	0.032371	-0.056276	0.997890						
04349														-1.564422	-10.667045	0.159775	0.999102	0.031892	-0.027886	-0.029794	0.996912	0.072650	0.030116	-0.071754	0.996968						
04350														-1.629269	-10.875622	0.100880	0.999366	0.026037	-0.024300	-0.023670	0.995376	0.093092	0.026612	-0.092458	0.995361						
04351														-1.335365	-11.275764	0.407740	0.999616	0.017735	-0.021273	-0.015069	0.992719	0.119509	0.023237	-0.119142	0.992605						
04352														-0.823666	-11.674754	1.356275	0.999824	0.006435	-0.017627	-0.003689	0.988434	0.151608	0.018398	-0.151517	0.988283						
04353														-0.650909	-11.502496	1.964627	0.999793	-0.012115	-0.016324	0.015050	0.980926	0.193797	0.013665	-0.194002	0.980906						
04354														-1.452244	-11.402528	1.106657	0.999397	-0.030836	-0.015931	0.033741	0.970760	0.237669	0.008137	-0.238064	0.971215						
04355														-1.847183	-12.227305	2.076682	0.998297	-0.055323	-0.018506	0.058329	0.951712	0.301400	0.000938	-0.301967	0.953318						
04356														-2.436502	-9.939567	2.814540	0.995392	-0.091296	-0.029327	0.095715	0.927468	0.361443	-0.005799	-0.362585	0.931933						
04357														-4.344354	-8.163949	1.188413	0.992846	-0.111670	-0.042263	0.119161	0.904286	0.409961	-0.007563	-0.412065	0.911123						
04358														-3.628490	-7.286009	-0.472682	0.992265	-0.116279	-0.043467	0.123343	0.883954	0.451012	-0.014020	-0.452885	0.891459						
04359														-1.586761	-6.929662	-0.463834	0.993154	-0.111809	-0.033807	0.114242	0.869437	0.480653	-0.024349	-0.481225	0.876259						
04360														0.272792	-6.791552	-1.200364	0.993476	-0.111494	-0.023964	0.108487	0.859221	0.499970	-0.035154	-0.499308	0.865711						
04361														0.188370	-7.355374	-0.309155	0.992089	-0.123355	-0.023292	0.118134	0.854631	0.505619	-0.042465	-0.504371	0.862442						
04362														-1.096790	-6.926414	0.566632	0.989167	-0.143369	-0.031532	0.139839	0.854959	0.499489	-0.044653	-0.498488	0.865746						
04363														-1.159467	-7.007168	0.616894	0.986381	-0.160450	-0.036177	0.157755	0.860658	0.484129	-0.046543	-0.483243	0.874248						
04364														-1.319985	-7.549111	0.152245	0.983481	-0.177625	-0.034862	0.173532	0.870377	0.460794	-0.051505	-0.459232	0.886822						
04365														-2.301687	-8.345506	1.234989	0.979637	-0.198696	-0.028830	0.191315	0.880239	0.434255	-0.060908	-0.430927	0.900329						
04366														-4.615476	-7.943937	3.349869	0.976888	-0.213054	-0.017229	0.201016	0.888298	0.412941	-0.072675	-0.406860	0.910595						
04367														-4.793687	-7.557957	5.904328	0.980580	-0.196069	0.004395	0.177716	0.897827	0.402894	-0.082941	-0.394289	0.915236						
04368														-3.223976	-7.508073	7.374608	0.986513	-0.161319	0.027731	0.137605	0.909092	0.393212	-0.088643	-0.384093	0.919030						
04369														-1.618434	-8.389824	6.473381	0.988094	-0.147237	0.044636	0.119806	0.918353	0.377193	-0.096528	-0.367354	0.925058						
04370														-0.052149	-9.467900	5.803982	0.987842	-0.143305	0.060265	0.112169	0.925424	0.361951	-0.107640	-0.350791	0.930247						
04371														1.636798	-10.806445	6.899281	0.984706	-0.159205	0.070760	0.123238	0.923593	0.363027	-0.123149	-0.348754	0.929088						
04372														-1.374322	-13.556360	2.847033	0.977886	-0.194049	0.078007	0.155237	0.923409	0.351022	-0.140147	-0.331150	0.933112						
04373														-1.642674	-12.066186	4.143685	0.975083	-0.207646	0.078077	0.166248	0.917011	0.362565	-0.146883	-0.340551	0.928682						
04374														-1.706903	-6.382789	-2.004497	0.967796	-0.242370	0.068024	0.204652	0.914868	0.348043	-0.146589	-0.322913	0.935007						
04375														-2.213710	-7.450351	-2.964796	0.971332	-0.221785	0.085592	0.181443	0.924268	0.335869	-0.153600	-0.310710	0.938012						
04376														2.659230	-12.513858	0.065277	0.970694	-0.215314	0.106740	0.172877	0.934152	0.312206	-0.166934	-0.284604	0.943999						
04377														1.632779	-12.462161	-1.811582	0.967898	-0.222613	0.116691	0.181488	0.940196	0.288259	-0.173883	-0.257828	0.950416						
04378														-0.116545	-9.679250	-0.477508	0.965076	-0.233742	0.118288	0.195147	0.942690	0.270653	-0.174772	-0.238117	0.955382						
04379														-0.650330	-9.378458	-0.470786	0.963072	-0.241157	0.119730	0.205757	0.946023	0.250410	-0.173655	-0.216528	0.960708						
04380														-0.002591	-10.158102	-0.348934	0.960918	-0.248885	0.121214	0.216626	0.948645	0.230534	-0.172366	-0.195266	0.965485						
04381														-0.476742	-9.623742	0.077721	0.961144	-0.246814	0.123635	0.217636	0.953030	0.210639	-0.169816	-0.175547	0.969714						
04382														-0.265234	-9.775784	0.169838	0.964827	-0.230102	0.127131	0.204341	0.960678	0.187998	-0.165390	-0.155408	0.973907						
04383														0.629573	-10.226045	-0.562965	0.970200	-0.204723	0.129619	0.183011	0.969714	0.161748	-0.158807	-0.133206	0.978282						
04384														1.742894	-10.035362	-1.207758	0.974755	-0.181643	0.129843	0.164072	0.977134	0.135240	-0.151439	-0.110522	0.982268						
04385														1.443649	-9.448936	-1.615521	0.977452	-0.168894	0.126736	0.155231	0.981629	0.110938	-0.143145	-0.088764	0.985713						
04386														-0.003012	-9.265147	-1.000037	0.979266	-0.163438	0.119688	0.153854	0.984394	0.085422	-0.131782	-0.065236	0.989130						
04387														0.368101	-9.841023	-0.854238	0.979849	-0.165960	0.111143	0.160386	0.985384	0.057399	-0.119044	-0.038416	0.992145						
04388														0.042121	-9.325603	-1.334762	0.980169	-0.168925	0.103599	0.166865	0.985574	0.028297	-0.106884	-0.010449	0.994217						
04389														-0.119873	-9.124777	-1.231730	0.981808	-0.163653	0.096281	0.164599	0.986359	-0.001910	-0.094655	0.017723	0.995352						
04390														-0.576312	-9.245582	-1.397655	0.983830	-0.155641	0.088625	0.159085	0.986707	-0.033177	-0.082283	0.046740	0.995512						
04391														-0.826794	-9.330506	-1.457803	0.986567	-0.142462	0.079941	0.147413	0.987262	-0.059861	-0.070395	0.070841	0.995001						
04392														-1.157196	-9.402885	-0.161684	0.989854	-0.122549	0.071905	0.128177	0.988543	-0.079705	-0.061314	0.088113	0.994222						
04393														0.482765	-10.490991	1.495517	0.992493	-0.102253	0.067099	0.107992	0.990218	-0.088350	-0.057409	0.094933	0.993827						
04394														1.517699	-9.652540	0.394788	0.993429	-0.094732	0.064230	0.099970	0.991444	-0.083937	-0.055728	0.089807	0.994399						
04395														2.169778	-10.149132	0.383602	0.994233	-0.088514	0.060542	0.093207	0.992454	-0.079670	-0.053033	0.084853	0.994981						
04396														2.274315	-11.907087	1.166191	0.994831	-0.085015	0.055537	0.088918	0.993428	-0.072069	-0.049045	0.076635	0.995852						
04397														0.933092	-12.037240	1.308210	0.995689	-0.078164	0.049931	0.081132	0.994867	-0.060476	-0.044948	0.064266	0.996920						
04398														-1.253959	-12.011439	-0.954192	0.996748	-0.067280	0.044358	0.069233	0.996627	-0.044072	-0.041243	0.047000	0.998043						
04399														-2.422908	-11.028385	-0.135838	0.997787	-0.052674	0.040570	0.053364	0.998445	-0.016102	-0.039659	0.018231	0.999047						
04400														-2.287266	-11.888141	1.057745	0.998072	-0.050152	0.036575	0.049507	0.998605	0.018339	-0.037443	-0.016493	0.999163						
04401														-1.851550	-12.218927	1.578353	0.997925	-0.055726	0.032247	0.053492	0.996356	0.066431	-0.035832	-0.064568	0.997270						
04402														-2.239551	-11.757371	0.384580	0.997894	-0.057800	0.029445	0.054061	0.991899	0.114954	-0.035851	-0.113120	0.992934						
04403														-2.883289	-11.401671	-2.435567	0.998408	-0.051230	0.023617	0.046822	0.986071	0.159597	-0.031464	-0.158237	0.986900						
04404														-2.169321	-11.123455	-3.222839	0.998964	-0.039489	0.022610	0.034270	0.979788	0.197081	-0.029936	-0.196102	0.980126						
04405														-0.889702	-10.889178	-3.489227	0.999082	-0.032127	0.028334	0.024760	0.972861	0.230060	-0.034956	-0.229148	0.972764						
04406														-0.672833	-10.244814	-1.744303	0.998715	-0.040213	0.030830	0.030789	0.964830	0.261065	-0.040243	-0.259780	0.964829						
04407														-1.421531	-9.950322	0.304619	0.997394	-0.066912	0.026982	0.056249	0.955379	0.289976	-0.045181	-0.287703	0.956653						
04408														-2.554542	-9.544543	0.530898	0.995384	-0.093495	0.021676	0.081892	0.945154	0.316192	-0.050049	-0.312957	0.948448						
04409														-2.288627	-8.736179	0.325561	0.993527	-0.112093	0.018397	0.099177	0.934955	0.340623	-0.055382	-0.336593	0.940020						
04410														-2.074404	-8.409331	0.363703	0.991929	-0.125747	0.016285	0.111616	0.926876	0.358388	-0.060160	-0.353678	0.933431						
04411														-2.622297	-8.489892	0.438763	0.990600	-0.135924	0.015356	0.120466	0.920055	0.372808	-0.064802	-0.367454	0.927781						
04412														-3.080200	-8.074483	1.055198	0.990249	-0.138237	0.017243	0.120796	0.913709	0.388001	-0.069391	-0.382135	0.921498						
04413														-2.199474	-7.771007	1.796969	0.990852	-0.132913	0.023377	0.112418	0.908755	0.401903	-0.074662	-0.395599	0.915384						
04414														-0.807678	-8.096396	2.002106	0.990895	-0.130775	0.032005	0.106118	0.904923	0.412132	-0.082858	-0.404984	0.910562						
04415														-0.092640	-8.562181	1.835043	0.988888	-0.143829	0.037596	0.114886	0.899869	0.420757	-0.094348	-0.411762	0.906394						
04416														-0.144745	-8.429567	3.131190	0.985893	-0.162558	0.039870	0.129920	0.893418	0.430029	-0.105525	-0.418783	0.901934						
04417														-0.684345	-7.521221	4.594066	0.983357	-0.176765	0.041987	0.140547	0.886563	0.440741	-0.115132	-0.427504	0.896652						
04418														-0.895801	-6.589465	4.236340	0.982128	-0.182446	0.046244	0.142884	0.882657	0.447772	-0.122512	-0.433162	0.892951						
04419														-0.657715	-6.432552	2.512684	0.981935	-0.181856	0.052274	0.139733	0.883186	0.447724	-0.127589	-0.432331	0.892643						
04420														-0.861211	-6.524513	1.578448	0.982255	-0.177488	0.060609	0.133148	0.887506	0.441140	-0.132088	-0.425242	0.895389						
04421														-1.007366	-6.478087	1.598667	0.981241	-0.180008	0.069023	0.133807	0.893648	0.428355	-0.138790	-0.411084	0.900970						
04422														-1.747260	-6.299608	2.265827	0.977955	-0.195934	0.072201	0.149583	0.898602	0.412481	-0.145699	-0.392588	0.908101						
04423														-1.980644	-6.367717	1.998827	0.973175	-0.216390	0.078134	0.170686	0.906806	0.385448	-0.154260	-0.361772	0.919416						
04424														1.234879	-20.681234	10.015684	0.968841	-0.215330	0.122396	0.156180	0.914647	0.372865	-0.192238	-0.342131	0.919777						
04425														-3.344756	-17.294805	4.496717	0.951860	-0.289695	0.100196	0.231683	0.893942	0.383654	-0.200712	-0.341971	0.918025						
04426														-6.702716	-3.960688	-4.114244	0.949887	-0.300907	0.084671	0.251699	0.896880	0.363667	-0.185370	-0.324131	0.927673						
04427														-5.830993	-3.909099	-2.125992	0.963935	-0.245641	0.102416	0.194272	0.912478	0.360059	-0.181898	-0.327177	0.927291						
04428														5.694539	-10.799691	0.542154	0.966355	-0.220954	0.131674	0.169165	0.931591	0.321747	-0.193758	-0.288647	0.937625						
04429														5.054096	-15.816210	-4.404057	0.966879	-0.208330	0.147456	0.157141	0.941136	0.299283	-0.201126	-0.266199	0.942702						
04430														3.145405	-10.754274	1.307624	0.964553	-0.218525	0.147936	0.168363	0.941274	0.292674	-0.203205	-0.257392	0.944699						
04431														-0.413211	-9.163476	0.419954	0.963295	-0.225334	0.145904	0.179162	0.944407	0.275675	-0.199912	-0.239416	0.950113						
04432														-0.039684	-9.716302	-0.512744	0.963839	-0.222143	0.147200	0.180104	0.950132	0.254580	-0.196412	-0.218863	0.955783						
04433														0.278669	-9.130486	-0.548082	0.966054	-0.210604	0.149616	0.172540	0.957031	0.233071	-0.192273	-0.199345	0.960881						
04434														0.299070	-10.007668	-0.475833	0.968424	-0.197499	0.152149	0.164126	0.964427	0.207227	-0.187664	-0.175712	0.966389						
04435														0.410316	-9.987518	-0.666219	0.971692	-0.179646	0.153436	0.151370	0.972046	0.179484	-0.181390	-0.151178	0.971722						
04436														1.378725	-9.855326	-0.662353	0.975285	-0.159876	0.152507	0.137104	0.979179	0.149705	-0.173266	-0.125096	0.976898						
04437														1.539140	-9.505839	-1.068788	0.978319	-0.145149	0.147731	0.127408	0.984165	0.123231	-0.163278	-0.101737	0.981320						
04438														0.782633	-9.368538	-0.468796	0.980157	-0.139824	0.140507	0.126184	0.986776	0.101742	-0.152875	-0.081994	0.984838						
04439														0.046966	-10.031518	0.596058	0.981101	-0.140306	0.133245	0.129952	0.987998	0.083503	-0.143362	-0.064610	0.987559						
04440														0.369609	-9.617471	0.861461	0.982772	-0.134808	0.126439	0.127231	0.989659	0.066237	-0.134061	-0.049009	0.989761						
04441														1.517214	-9.589417	1.606047	0.985052	-0.120723	0.122879	0.115525	0.992115	0.048604	-0.127778	-0.033682	0.991231						
04442														1.175049	-9.704938	-0.334198	0.985732	-0.117372	0.120649	0.114338	0.992933	0.031798	-0.123528	-0.017550	0.992186						
04443														0.144232	-9.249001	-1.470831	0.986401	-0.116156	0.116283	0.115171	0.993230	0.015176	-0.117259	-0.001577	0.993100						
04444														1.058733	-9.964516	-0.780489	0.988047	-0.108466	0.109536	0.109197	0.994020	-0.000680	-0.108808	0.012632	0.993983						
04445														0.326834	-9.590144	-0.169049	0.989030	-0.105254	0.103643	0.107816	0.993981	-0.019428	-0.100974	0.030389	0.994425						
04446														0.242270	-9.770961	-0.099377	0.990030	-0.101332	0.097839	0.105702	0.993571	-0.040552	-0.093101	0.050489	0.994376						
04447														0.366496	-9.927538	0.255053	0.991062	-0.098223	0.090264	0.103826	0.992807	-0.059613	-0.083759	0.068452	0.994132						
04448														0.448870	-9.843951	1.092045	0.992555	-0.091872	0.079970	0.097817	0.992456	-0.073909	-0.072576	0.081181	0.994053						
04449														0.343534	-9.884937	1.791474	0.994826	-0.077651	0.065507	0.082942	0.993146	-0.082348	-0.058664	0.087355	0.994448						
04450														0.273045	-10.287914	1.501566	0.997163	-0.056395	0.049848	0.060288	0.994937	-0.080404	-0.045062	0.083181	0.995515						
04451														0.254902	-12.551041	1.510245	0.998481	-0.039457	0.038452	0.041890	0.997027	-0.064668	-0.035786	0.066181	0.997166						
04452														-1.158113	-13.606397	1.280304	0.998836	-0.036108	0.031979	0.037041	0.998890	-0.029091	-0.030893	0.030242	0.999065						
04453														-2.933292	-12.311415	2.169217	0.998798	-0.040685	0.027345	0.040050	0.998924	0.023390	-0.028268	-0.022266	0.999352						
04454														-5.003595	-11.703771	0.705799	0.999053	-0.039609	0.017989	0.038111	0.996294	0.077112	-0.020977	-0.076353	0.996860						
04455														-6.325741	-12.938611	-1.513772	0.999870	-0.014791	0.006379	0.013811	0.991016	0.133030	-0.008289	-0.132924	0.991092						
04456														-5.332180	-13.177215	-4.620952	0.999841	0.016050	0.007830	-0.017191	0.983782	0.178541	-0.004838	-0.178647	0.983901						
04457														-0.207420	-12.733373	-6.331614	0.998263	0.052550	0.026618	-0.057078	0.974614	0.216495	-0.014565	-0.217638	0.975921						
04458														2.979654	-11.383793	-4.412386	0.997351	0.057716	0.044259	-0.067006	0.965795	0.250499	-0.028287	-0.252801	0.967105						
04459														1.675625	-10.937149	-1.383110	0.998615	0.022498	0.047558	-0.035128	0.958065	0.284389	-0.039166	-0.285666	0.957529						
04460														-0.823196	-10.015421	0.328997	0.998823	-0.030678	0.037576	0.017166	0.948035	0.317701	-0.045369	-0.316682	0.947446						
04461														-2.603103	-8.707477	0.076882	0.996430	-0.081038	0.023666	0.067879	0.935720	0.346151	-0.050197	-0.343309	0.937880						
04462														-3.331787	-7.521227	-0.468423	0.992607	-0.120756	0.012241	0.107794	0.923403	0.368386	-0.055788	-0.364343	0.929592						
04463														-4.102097	-7.160255	-0.294183	0.988570	-0.150647	0.005964	0.136821	0.913048	0.384217	-0.063326	-0.379010	0.923223						
04464														-4.472273	-7.187586	0.929708	0.985665	-0.168624	0.005512	0.152491	0.904388	0.398534	-0.072187	-0.391981	0.917137						
04465														-4.013669	-6.728035	1.688891	0.985650	-0.168388	0.011814	0.148440	0.897954	0.414300	-0.080371	-0.406601	0.910064						
04466														-2.175531	-6.818993	2.053238	0.988058	-0.151902	0.025822	0.126302	0.894457	0.428945	-0.088255	-0.420561	0.902961						
04467														0.314471	-6.845505	2.255790	0.989844	-0.135627	0.042587	0.103428	0.892621	0.438783	-0.097525	-0.429922	0.897583						
04468														1.721206	-7.543914	2.517860	0.989407	-0.134906	0.053619	0.097741	0.892140	0.441059	-0.107337	-0.431146	0.895875						
04469														1.065429	-8.281925	3.297193	0.986934	-0.152085	0.053205	0.113274	0.889758	0.442154	-0.114585	-0.430350	0.895360						
04470														-0.314894	-7.946599	4.221672	0.984005	-0.171822	0.047021	0.133376	0.885585	0.444915	-0.118087	-0.431527	0.894338						
04471														-1.251237	-7.927309	4.590409	0.981444	-0.187155	0.041717	0.149256	0.882233	0.446528	-0.120374	-0.432016	0.893797						
04472														-1.796373	-7.694471	3.687860	0.979211	-0.198989	0.039372	0.161390	0.881850	0.443050	-0.122882	-0.427485	0.895632						
04473														-1.833257	-7.320665	2.116947	0.978268	-0.203091	0.041775	0.165121	0.884943	0.435444	-0.125403	-0.419083	0.899246						
04474														-1.775026	-6.947865	1.596531	0.978284	-0.201636	0.048002	0.162868	0.891054	0.423671	-0.128200	-0.406652	0.904543						
04475														-2.254632	-7.752659	2.511225	0.977553	-0.203360	0.055089	0.164038	0.898706	0.406717	-0.132219	-0.388550	0.911892						
04476														-2.022319	-10.522125	4.057674	0.972886	-0.223207	0.060601	0.183301	0.903887	0.386509	-0.141048	-0.364921	0.920293						
04477														-2.887478	-18.645883	6.343392	0.971411	-0.220534	0.087891	0.171815	0.908564	0.380777	-0.163829	-0.354791	0.920480						
04478														-0.941412	-10.401337	6.630667	0.960519	-0.266095	0.081219	0.215263	0.895752	0.388961	-0.176252	-0.356121	0.917667						
04479														-4.572322	-4.365368	-4.081059	0.956561	-0.282294	0.072809	0.237137	0.898699	0.368926	-0.169579	-0.335634	0.926603						
04480														-2.643012	-6.148962	-1.928665	0.970239	-0.220906	0.099181	0.172333	0.917659	0.358055	-0.170111	-0.330307	0.928418						
04481														4.219440	-12.700194	0.627938	0.971703	-0.204503	0.118201	0.154854	0.929412	0.334983	-0.178362	-0.307200	0.934781						
04482														3.098031	-13.288058	-2.780219	0.970029	-0.207801	0.125946	0.159113	0.934946	0.317110	-0.183648	-0.287566	0.939989						
04483														1.883131	-10.329296	0.263075	0.966759	-0.220933	0.128706	0.173024	0.935890	0.306875	-0.188254	-0.274405	0.943007						
04484														-0.046484	-9.481038	0.865893	0.963268	-0.235118	0.129748	0.189097	0.936931	0.293944	-0.190676	-0.258612	0.946975						
04485														0.260336	-9.542113	-0.109901	0.960918	-0.243023	0.132576	0.199217	0.939579	0.278394	-0.192221	-0.241103	0.951273						
04486														0.700795	-9.773663	0.209914	0.960464	-0.242301	0.137111	0.200695	0.943913	0.262203	-0.192953	-0.224319	0.955223						
04487														0.537619	-10.071828	-0.049839	0.962195	-0.233382	0.140406	0.195464	0.950703	0.240746	-0.189670	-0.204200	0.960379						
04488														0.261835	-10.226775	-0.184745	0.965948	-0.215530	0.143150	0.182187	0.959430	0.215178	-0.183719	-0.181771	0.966026						
04489														0.479004	-9.545616	-0.203246	0.970407	-0.193638	0.144275	0.165765	0.968638	0.185101	-0.175593	-0.155707	0.972071						
04490														1.523188	-9.498198	-0.575107	0.974785	-0.172093	0.142047	0.149979	0.976624	0.153988	-0.165227	-0.128801	0.977809						
04491														2.052792	-9.224004	-0.384570	0.977594	-0.160199	0.136552	0.143602	0.981859	0.123820	-0.153910	-0.101437	0.982864						
04492														1.669147	-9.613715	-0.516315	0.978922	-0.158202	0.129169	0.146550	0.984606	0.095262	-0.142251	-0.074325	0.987036						
04493														1.173010	-9.687834	-0.401900	0.978905	-0.164419	0.121288	0.156945	0.985204	0.068855	-0.130815	-0.048367	0.990226						
04494														0.273543	-9.462282	-0.324432	0.978615	-0.172255	0.112431	0.168317	0.984764	0.043697	-0.118246	-0.023838	0.992698						
04495														-0.573902	-8.927838	0.182952	0.978587	-0.178156	0.103090	0.177192	0.984002	0.018513	-0.104739	0.000150	0.994500						
04496														-0.937518	-9.323173	0.353891	0.979908	-0.175974	0.093875	0.177562	0.984070	-0.008774	-0.090836	0.025267	0.995545						
04497														-0.756581	-9.880141	0.430640	0.982565	-0.166122	0.083485	0.169471	0.984923	-0.034722	-0.076458	0.048265	0.995904						
04498														-0.582704	-10.015002	0.406351	0.986177	-0.149285	0.071892	0.153501	0.986493	-0.057170	-0.062386	0.067416	0.995773						
04499														0.035177	-9.560978	0.690422	0.990576	-0.123984	0.058191	0.128200	0.988879	-0.075389	-0.048197	0.082139	0.995455						
04500														0.594934	-9.628351	0.190834	0.994218	-0.098409	0.042963	0.101922	0.990790	-0.089142	-0.033795	0.093006	0.995092						
04501														0.951592	-10.628426	-0.628504	0.996174	-0.082086	0.029988	0.084610	0.991797	-0.095810	-0.021877	0.097981	0.994948						
04502														1.398888	-12.304570	-0.099005	0.997099	-0.072051	0.024539	0.074083	0.992658	-0.095609	-0.017470	0.097150	0.995116						
04503														0.605963	-12.175058	1.268093	0.997413	-0.067279	0.025323	0.069219	0.993914	-0.085691	-0.019404	0.087222	0.996000						
04504														-1.443852	-11.811376	1.593740	0.997905	-0.058039	0.028595	0.059769	0.996164	-0.063912	-0.024776	0.065487	0.997546						
04505														-3.729980	-12.280225	2.181007	0.998256	-0.046946	0.035792	0.048002	0.998419	-0.029233	-0.034363	0.030900	0.998932						
04506														-5.639017	-12.984309	2.033753	0.998055	-0.047020	0.040930	0.045957	0.998591	0.026539	-0.042120	-0.024607	0.998809						
04507														-4.781956	-11.541270	0.537426	0.997479	-0.061531	0.035357	0.058423	0.994830	0.083069	-0.040285	-0.080794	0.995916						
04508														-3.941719	-12.348302	-2.531304	0.998371	-0.049970	0.027524	0.045723	0.989404	0.137799	-0.034118	-0.136316	0.990078						
04509														-3.350760	-12.306105	-4.707180	0.999112	-0.032691	0.026592	0.027053	0.981399	0.190064	-0.032311	-0.189175	0.981412						
04510														-0.734633	-12.487103	-3.802932	0.999412	-0.001012	0.034286	-0.007352	0.970012	0.242945	-0.033504	-0.243054	0.969434						
04511														1.453690	-10.218713	-1.119659	0.999086	0.007234	0.042130	-0.018929	0.958552	0.284289	-0.038327	-0.284826	0.957813						
04512														1.481438	-10.091947	-0.583633	0.998919	-0.010990	0.045159	-0.003960	0.947988	0.318283	-0.046308	-0.318117	0.946920						
04513														-0.155325	-9.530095	-1.331264	0.998200	-0.042426	0.042388	0.025026	0.936977	0.348492	-0.054502	-0.346804	0.936353						
04514														-1.119131	-8.611564	-0.487996	0.997019	-0.066081	0.039823	0.046433	0.926144	0.374302	-0.061616	-0.371337	0.926452						
04515														-1.442112	-7.765825	0.645744	0.995697	-0.084028	0.039063	0.061899	0.916838	0.394432	-0.068958	-0.390317	0.918094						
04516														-1.732332	-7.452653	1.043580	0.993989	-0.101796	0.040288	0.076602	0.909600	0.408363	-0.078215	-0.402822	0.911930						
04517														-2.235995	-7.392862	1.467116	0.991485	-0.123726	0.040620	0.095637	0.903530	0.417717	-0.088384	-0.410275	0.907669						
04518														-2.368478	-7.070794	2.231927	0.988304	-0.146965	0.040703	0.116153	0.898401	0.423538	-0.098813	-0.413856	0.904963						
04519														-1.542173	-6.944382	3.207456	0.985589	-0.163628	0.042902	0.129943	0.894724	0.427298	-0.108304	-0.415565	0.903092						
04520														-1.213929	-7.049078	2.951762	0.982538	-0.181210	0.042222	0.146275	0.892524	0.426621	-0.114992	-0.412995	0.903445						
04521														-1.255330	-7.658108	2.585129	0.980594	-0.191251	0.043120	0.155325	0.892071	0.424362	-0.119626	-0.409429	0.904465						
04522														-1.618735	-7.751422	3.415695	0.979827	-0.194114	0.047533	0.156100	0.891883	0.424473	-0.124790	-0.408490	0.904192						
04523														-1.665371	-7.371532	3.900353	0.978527	-0.199307	0.052557	0.158728	0.891301	0.424722	-0.131494	-0.407259	0.903797						
04524														-1.537826	-7.085623	3.834257	0.975024	-0.214970	0.055832	0.172425	0.891086	0.419803	-0.139996	-0.399691	0.905896						
04525														-1.375758	-8.385231	4.670207	0.970172	-0.234352	0.062008	0.188413	0.889908	0.415407	-0.152533	-0.391334	0.907520						
04526														0.022155	-8.512946	7.674445	0.963166	-0.260114	0.068206	0.208469	0.882484	0.421619	-0.169859	-0.391870	0.904204						
04527														-3.491219	-7.241789	-1.004443	0.949560	-0.307391	0.062027	0.259435	0.881176	0.395250	-0.176153	-0.359221	0.916477						
04528														-3.064393	-16.291707	1.654004	0.958406	-0.264441	0.107374	0.201857	0.894006	0.400009	-0.201772	-0.361696	0.910200						
04529														1.279406	-9.691037	4.331671	0.948218	-0.299817	0.104841	0.237695	0.888781	0.391879	-0.210673	-0.346666	0.914024						
04530														-2.473447	-7.020206	-4.679282	0.952610	-0.284708	0.107127	0.226785	0.899408	0.373675	-0.202739	-0.331671	0.921353						
04531														0.558175	-9.697125	-1.544016	0.958919	-0.252387	0.129521	0.192298	0.913978	0.357304	-0.208558	-0.317719	0.924964						
04532														3.442888	-12.950300	-0.173000	0.955915	-0.257399	0.141325	0.197887	0.920256	0.337594	-0.216952	-0.294745	0.930622						
04533														0.811247	-11.967536	-0.800378	0.951831	-0.270133	0.145071	0.211600	0.921096	0.326815	-0.221908	-0.280376	0.933888						
04534														0.349108	-9.725301	0.560451	0.949678	-0.276170	0.147791	0.219931	0.923879	0.313173	-0.223030	-0.264909	0.938126						
04535														0.836512	-9.757824	0.257158	0.950048	-0.271982	0.153081	0.218997	0.930401	0.293930	-0.222371	-0.245724	0.943489						
04536														1.984558	-10.440920	0.125268	0.950560	-0.266306	0.159740	0.216924	0.937504	0.272086	-0.222215	-0.223983	0.948922						
04537														1.621920	-10.050457	0.207577	0.951277	-0.260797	0.164491	0.215690	0.944067	0.249429	-0.220340	-0.201797	0.954321						
04538														0.950964	-9.602909	0.177467	0.953488	-0.250759	0.167276	0.210920	0.951475	0.224071	-0.215347	-0.178367	0.960110						
04539														0.773438	-9.453536	-0.250565	0.956573	-0.237957	0.168361	0.204127	0.959152	0.195854	-0.208089	-0.152981	0.966072						
04540														1.233885	-9.453477	-0.395125	0.959402	-0.226623	0.167895	0.198788	0.965629	0.167462	-0.200075	-0.127287	0.971477						
04541														0.787365	-9.284990	-0.198180	0.961478	-0.220037	0.164756	0.197576	0.969900	0.142330	-0.191114	-0.104295	0.976011						
04542														-0.596117	-9.104356	0.359660	0.963766	-0.214758	0.158219	0.197084	0.972992	0.120185	-0.179757	-0.084648	0.980062						
04543														-1.359959	-9.562578	0.164841	0.967605	-0.203599	0.149290	0.190260	0.976738	0.098911	-0.165956	-0.067303	0.983834						
04544														-0.078592	-9.860344	0.065623	0.972714	-0.184358	0.140855	0.174708	0.981513	0.078157	-0.152660	-0.051416	0.986940						
04545														0.947862	-9.574887	0.005420	0.977329	-0.164401	0.133415	0.158053	0.985788	0.056925	-0.140877	-0.034548	0.989424						
04546														1.153136	-9.266014	-0.401374	0.981384	-0.145859	0.124939	0.142792	0.989195	0.033208	-0.128433	-0.014750	0.991609						
04547														0.979724	-9.585711	-0.598500	0.985552	-0.125495	0.113745	0.125280	0.992080	0.009071	-0.113982	0.005310	0.993469						
04548														1.056505	-9.947998	-0.135336	0.988979	-0.107900	0.101384	0.109654	0.993899	-0.011877	-0.099484	0.022863	0.994776						
04549														1.068154	-10.185759	0.312588	0.991776	-0.091146	0.089848	0.094109	0.995130	-0.029314	-0.086739	0.037529	0.995524						
04550														1.078553	-10.185333	0.731345	0.993445	-0.081222	0.080442	0.084807	0.995503	-0.042202	-0.076653	0.048748	0.995865						
04551														0.753129	-9.888719	0.828321	0.994212	-0.078859	0.072965	0.082658	0.995293	-0.050595	-0.068631	0.056334	0.996050						
04552														0.512538	-10.386375	0.688503	0.995179	-0.073469	0.064963	0.077002	0.995586	-0.053664	-0.060733	0.058407	0.996444						
04553														0.557080	-11.197824	0.999510	0.995927	-0.067477	0.059799	0.070391	0.996362	-0.048036	-0.056341	0.052049	0.997054						
04554														0.412332	-11.934574	1.599319	0.996328	-0.063409	0.057539	0.065409	0.997294	-0.033563	-0.055255	0.037203	0.997779						
04555														-0.945367	-11.540288	1.689341	0.996489	-0.061497	0.056818	0.062241	0.997996	-0.011407	-0.056003	0.014903	0.998319						
04556														-2.438743	-12.324169	1.858380	0.996644	-0.061406	0.054121	0.060071	0.997856	0.025961	-0.055599	-0.022623	0.998197						
04557														-3.421003	-11.827644	2.309536	0.996522	-0.067473	0.048901	0.063504	0.994880	0.078624	-0.053956	-0.075245	0.995704						
04558														-4.180389	-12.564779	1.315294	0.997479	-0.059506	0.038668	0.053927	0.989774	0.132060	-0.046131	-0.129642	0.990487						
04559														-4.225183	-12.847973	-0.536956	0.998627	-0.044359	0.027859	0.038571	0.982561	0.181898	-0.035442	-0.180574	0.982923						
04560														-4.471042	-11.580203	-4.444892	0.999307	-0.023856	0.028582	0.016853	0.974428	0.224067	-0.033196	-0.223430	0.974155						
04561														-0.356000	-11.271112	-5.241310	0.999024	0.006134	0.043745	-0.017257	0.965806	0.258691	-0.040663	-0.259193	0.964969						
04562														3.153094	-10.789286	-1.986975	0.998470	0.013953	0.053515	-0.028953	0.956330	0.290850	-0.047120	-0.291954	0.955271						
04563														1.717733	-10.090492	-0.055458	0.998633	-0.016396	0.049623	-0.000345	0.947423	0.319982	-0.052261	-0.319562	0.946123						
04564														-1.198518	-9.720342	0.233762	0.997720	-0.054733	0.039494	0.037630	0.936850	0.347702	-0.056030	-0.345423	0.936773						
04565														-2.110873	-8.566491	0.417059	0.995770	-0.087169	0.029061	0.070126	0.925318	0.372652	-0.059374	-0.369038	0.927516						
04566														-2.160448	-7.718820	0.517484	0.993020	-0.115966	0.021522	0.098401	0.915155	0.390907	-0.065028	-0.386060	0.920179						
04567														-3.149478	-7.916667	0.581180	0.989037	-0.146822	0.015773	0.128077	0.906086	0.403242	-0.073496	-0.396802	0.914957						
04568														-3.738017	-7.074678	1.265563	0.986061	-0.165863	0.013148	0.145477	0.897813	0.415653	-0.080746	-0.407947	0.909428						
04569														-2.130629	-6.824050	2.218241	0.986009	-0.165602	0.019050	0.141816	0.893420	0.426251	-0.087607	-0.417585	0.904405						
04570														-0.977264	-7.324547	1.902706	0.985617	-0.166960	0.026127	0.139540	0.891266	0.431479	-0.095326	-0.421628	0.901744						
04571														-0.190835	-7.457916	1.363003	0.984464	-0.172572	0.032392	0.141899	0.890588	0.432108	-0.103417	-0.420799	0.901240						
04572														-0.120217	-7.337530	1.765089	0.981794	-0.186693	0.035017	0.153935	0.890016	0.429156	-0.111286	-0.415953	0.902551						
04573														-0.353043	-7.327334	2.873038	0.979270	-0.199108	0.037243	0.165153	0.891265	0.422339	-0.117285	-0.407433	0.905672						
04574														-0.260910	-7.539369	3.494215	0.977652	-0.206232	0.040800	0.171496	0.894612	0.412624	-0.121596	-0.396406	0.909987						
04575														-0.377788	-7.982312	2.872363	0.976445	-0.210804	0.046014	0.175329	0.899487	0.400229	-0.125759	-0.382733	0.915259						
04576														-0.661226	-7.935165	2.855004	0.973941	-0.220745	0.052063	0.184534	0.904727	0.383948	-0.131857	-0.364336	0.921886						
04577														-1.162345	-8.910485	4.570535	0.969042	-0.239586	0.059627	0.201839	0.907842	0.367536	-0.142189	-0.344123	0.928096						
04578														-2.013740	-9.298842	1.942257	0.959821	-0.272508	0.066950	0.233857	0.908663	0.345895	-0.155095	-0.316341	0.935881						
04579														-4.252736	-16.162001	1.122855	0.954115	-0.285677	0.089736	0.242451	0.912897	0.328384	-0.175732	-0.291560	0.940272						
04580														-3.043354	-12.104322	3.641129	0.941402	-0.323519	0.095379	0.277904	0.904248	0.324199	-0.191130	-0.278696	0.941168						
04581														-5.243501	-6.470264	-2.505167	0.939586	-0.329190	0.093874	0.288044	0.908490	0.302781	-0.184956	-0.257449	0.948426						
04582														-2.241541	-7.657895	-3.451168	0.946965	-0.303752	0.104848	0.265636	0.923575	0.276490	-0.180819	-0.233975	0.955280						
04583														2.201152	-11.665015	-1.570020	0.956718	-0.262408	0.125828	0.225781	0.942087	0.247982	-0.183613	-0.208839	0.960558						
04584														3.346609	-12.685496	-1.004990	0.957471	-0.255579	0.133899	0.222111	0.949098	0.223336	-0.184164	-0.184097	0.965501						
04585														3.092241	-10.011468	0.347322	0.959199	-0.246165	0.139070	0.215157	0.954646	0.205810	-0.183426	-0.167491	0.968660						
04586														0.874030	-9.059666	0.206465	0.960784	-0.239329	0.140055	0.212524	0.959965	0.182484	-0.178122	-0.145562	0.973183						
04587														0.522314	-9.393855	-0.436235	0.964166	-0.226335	0.138405	0.204572	0.966448	0.155334	-0.168919	-0.121454	0.978118						
04588														0.552695	-9.496144	-0.626042	0.969293	-0.206005	0.134286	0.189632	0.973844	0.125167	-0.156559	-0.095859	0.983006						
04589														0.169839	-9.245905	-0.720740	0.974750	-0.183248	0.127601	0.172056	0.980602	0.093899	-0.142332	-0.069574	0.987371						
04590														0.641026	-9.435152	-1.120150	0.979544	-0.161717	0.119756	0.155209	0.985942	0.061875	-0.128079	-0.042022	0.990873						
04591														0.766747	-9.186035	-1.727279	0.983203	-0.144549	0.111438	0.142093	0.989407	0.029717	-0.114553	-0.013384	0.993327						
04592														0.867577	-8.602407	-2.238205	0.986767	-0.125639	0.102494	0.126921	0.991894	-0.006057	-0.100902	0.018985	0.994715						
04593														1.012993	-8.661116	-2.312314	0.989715	-0.109517	0.092030	0.114171	0.992353	-0.046914	-0.086188	0.056938	0.994651						
04594														0.851224	-9.319670	-2.630909	0.991443	-0.102642	0.080658	0.109508	0.990268	-0.085896	-0.071057	0.093993	0.993034						
04595														0.033093	-10.808470	-1.724440	0.993610	-0.090384	0.067601	0.097674	0.988701	-0.113715	-0.056559	0.119591	0.991211						
04596														0.145707	-11.850432	1.216621	0.994447	-0.086872	0.059401	0.093809	0.987557	-0.126220	-0.047697	0.131092	0.990222						
04597														-0.014393	-11.806249	1.662215	0.993708	-0.095563	0.058408	0.102494	0.986169	-0.130254	-0.045153	0.135421	0.989759						
04598														0.345609	-10.736573	1.487499	0.993697	-0.095586	0.058566	0.102627	0.985898	-0.132184	-0.045105	0.137361	0.989494						
04599														0.304053	-10.258174	1.075159	0.994571	-0.088478	0.054768	0.095232	0.986069	-0.136380	-0.041939	0.140855	0.989142						
04600														-0.254536	-10.202277	-1.482003	0.996478	-0.070495	0.045418	0.076093	0.987726	-0.136406	-0.035245	0.139381	0.989611						
04601														-1.116867	-9.956077	-2.343753	0.997850	-0.054926	0.035757	0.059229	0.989317	-0.133206	-0.028059	0.135038	0.990443						
04602														-0.861719	-10.137551	-1.035743	0.998606	-0.043924	0.029271	0.047351	0.990502	-0.129084	-0.023323	0.130291	0.991201						
04603														0.552280	-11.615928	0.393056	0.998789	-0.041280	0.026751	0.044185	0.991903	-0.119060	-0.021620	0.120097	0.992527						
04604														1.155486	-12.806623	1.374501	0.998378	-0.048922	0.029117	0.051461	0.994238	-0.094030	-0.024349	0.095376	0.995143						
04605														-0.633226	-11.433111	2.085330	0.997187	-0.065900	0.035702	0.067755	0.996266	-0.053508	-0.032042	0.055776	0.997929						
04606														-3.163174	-10.923714	1.892775	0.995526	-0.087150	0.036521	0.087044	0.996194	0.004476	-0.036772	-0.001277	0.999323						
04607														-6.286949	-11.061134	-1.709894	0.995372	-0.092809	0.024909	0.091089	0.993846	0.063023	-0.030605	-0.060463	0.997701						
04608														-6.168039	-12.992288	-2.699447	0.997445	-0.069856	0.014980	0.067559	0.990436	0.120300	-0.023241	-0.118980	0.992625						
04609														-3.669825	-12.716076	-4.836330	0.998734	-0.046202	0.019886	0.042287	0.985308	0.165469	-0.027239	-0.164419	0.986014						
04610														1.172069	-12.027358	-5.498279	0.998857	-0.030026	0.037182	0.021746	0.978342	0.205848	-0.042558	-0.204804	0.977877						
04611														2.314740	-11.142654	-2.917869	0.998232	-0.030431	0.051053	0.016840	0.968595	0.248074	-0.056999	-0.246775	0.967395						
04612														1.208568	-10.543403	-0.140781	0.996837	-0.061082	0.050850	0.043831	0.956210	0.289381	-0.066300	-0.286236	0.955863						
04613														-0.987328	-9.493655	0.007628	0.994012	-0.100846	0.042063	0.081769	0.941884	0.325835	-0.072478	-0.320444	0.944490						
04614														-2.311808	-8.201736	-0.896585	0.989283	-0.142657	0.031100	0.122457	0.926673	0.355361	-0.079514	-0.347745	0.934212						
04615														-2.946930	-7.594323	-1.322534	0.982710	-0.183655	0.023474	0.161456	0.912095	0.376849	-0.090621	-0.366544	0.925977						
04616														-3.895852	-7.156574	-0.868762	0.976268	-0.215611	0.020305	0.190491	0.899546	0.393104	-0.103023	-0.379907	0.919270						
04617														-3.999900	-6.421874	0.729474	0.973178	-0.228985	0.022156	0.200460	0.891301	0.406691	-0.112874	-0.391341	0.913297						
04618														-3.217561	-6.076093	1.438274	0.973492	-0.226877	0.028974	0.194940	0.889290	0.413718	-0.119629	-0.397103	0.909944						
04619														-1.464958	-6.341926	1.533057	0.975157	-0.217935	0.039652	0.182432	0.891677	0.414284	-0.125644	-0.396759	0.909283						
04620														0.371914	-6.878261	1.858253	0.974733	-0.218144	0.048057	0.179921	0.894229	0.409856	-0.132382	-0.390854	0.910883						
04621														0.493334	-7.934527	2.477447	0.971566	-0.231056	0.051706	0.191517	0.895307	0.402177	-0.139218	-0.380839	0.914101						
04622														-0.567546	-7.942249	3.859703	0.969650	-0.237534	0.057942	0.195742	0.896177	0.398185	-0.146509	-0.374759	0.915473						
04623														-0.642741	-7.930218	5.631135	0.969114	-0.236684	0.069278	0.191065	0.898203	0.395887	-0.155925	-0.370423	0.915682						
04624														0.476673	-9.491718	6.693000	0.966420	-0.243103	0.083263	0.192746	0.900075	0.390786	-0.169944	-0.361615	0.916708						
04625														0.137544	-8.664959	5.404613	0.956910	-0.277851	0.084391	0.224925	0.893021	0.389772	-0.183661	-0.353995	0.917037						
04626														-6.070389	-8.233202	-2.423955	0.948688	-0.307444	0.073950	0.261910	0.895022	0.361024	-0.177182	-0.323131	0.929620						
04627														-2.907789	-15.820596	3.013304	0.955217	-0.279687	0.096620	0.229518	0.906391	0.354649	-0.186766	-0.316591	0.929994						
04628														-2.567881	-10.351035	4.000329	0.948528	-0.300044	0.101332	0.247590	0.902083	0.353476	-0.197468	-0.310193	0.929939						
04629														-2.079917	-6.392557	-3.678792	0.947335	-0.303491	0.102223	0.255002	0.907975	0.332499	-0.193727	-0.288921	0.937547						
04630														1.099470	-8.675364	-2.537986	0.960140	-0.246080	0.132572	0.196326	0.931302	0.306810	-0.198964	-0.268553	0.942493						
04631														5.457958	-12.643847	-0.971533	0.961165	-0.234169	0.146039	0.186799	0.941554	0.280324	-0.203147	-0.242158	0.948731						
04632														1.992933	-11.899307	-1.720827	0.960246	-0.236922	0.147631	0.192550	0.945046	0.264221	-0.202118	-0.225290	0.953096						
04633														-0.341189	-9.602888	0.260144	0.958986	-0.242951	0.146019	0.201849	0.946982	0.249965	-0.199007	-0.210239	0.957181						
04634														-0.508370	-9.507999	-0.010078	0.959289	-0.241439	0.146534	0.204069	0.951225	0.231357	-0.195245	-0.192035	0.961770						
04635														-0.005816	-10.067310	-0.383522	0.961581	-0.230161	0.149625	0.196445	0.957630	0.210602	-0.191758	-0.173118	0.966053						
04636														1.023812	-10.045977	-0.713601	0.965389	-0.211074	0.153205	0.181560	0.965583	0.186240	-0.187243	-0.151978	0.970486						
04637														0.939257	-9.564849	-1.025751	0.970278	-0.187817	0.152598	0.163383	0.973593	0.159444	-0.178514	-0.129773	0.975342						
04638														1.123622	-9.209420	-1.242842	0.975098	-0.165133	0.148034	0.146798	0.980942	0.127293	-0.166233	-0.102392	0.980756						
04639														1.845574	-9.270002	-1.446345	0.978723	-0.149101	0.140963	0.136800	0.986194	0.093311	-0.152930	-0.072042	0.985608						
04640														2.017400	-9.482577	-1.820454	0.980943	-0.142015	0.132601	0.135041	0.989008	0.060227	-0.139697	-0.041173	0.989338						
04641														1.109464	-9.684968	-1.105058	0.981748	-0.144601	0.123539	0.142061	0.989428	0.029171	-0.126451	-0.011088	0.991911						
04642														0.052008	-9.321614	-0.880815	0.981798	-0.150867	0.115378	0.151934	0.988391	-0.000459	-0.113969	0.017980	0.993322						
04643														-0.722874	-8.932685	-1.185538	0.982495	-0.152611	0.106833	0.156419	0.987289	-0.028173	-0.101175	0.044391	0.993878						
04644														-0.527633	-9.042386	-0.901624	0.984309	-0.147882	0.096266	0.153611	0.986596	-0.055062	-0.086833	0.068985	0.993832						
04645														-0.458199	-9.663450	-0.944846	0.986845	-0.138098	0.084065	0.144670	0.986412	-0.077860	-0.072170	0.088998	0.993414						
04646														-0.359168	-10.319632	-1.038964	0.989470	-0.124630	0.073592	0.131446	0.986616	-0.096487	-0.060582	0.105145	0.992610						
04647														0.174247	-11.616495	-1.072049	0.989668	-0.123711	0.072482	0.131318	0.985014	-0.111816	-0.057563	0.120179	0.991082						
04648														-0.436178	-10.329180	1.026982	0.990676	-0.117122	0.069592	0.125265	0.983925	-0.127279	-0.053566	0.134810	0.989423						
04649														-0.133782	-9.361239	-0.040804	0.992992	-0.100651	0.061942	0.108732	0.983424	-0.145099	-0.046311	0.150818	0.987476						
04650														0.512362	-10.463677	-1.762377	0.995510	-0.080214	0.050264	0.087196	0.983726	-0.157097	-0.036844	0.160774	0.986303						
04651														1.301131	-12.178628	-1.619671	0.997051	-0.063639	0.042885	0.069817	0.984200	-0.162715	-0.031852	0.165229	0.985741						
04652														1.497316	-12.091511	-0.415206	0.997489	-0.056651	0.042512	0.062623	0.985820	-0.155680	-0.033090	0.157951	0.986892						
04653														0.368167	-11.426408	1.637058	0.997537	-0.052892	0.046080	0.058479	0.989811	-0.129827	-0.038743	0.132202	0.990465						
04654														-0.833995	-11.035483	3.345700	0.997424	-0.051379	0.050051	0.055755	0.994346	-0.090370	-0.045125	0.092928	0.994650						
04655														-2.316736	-11.563986	3.362323	0.997221	-0.053580	0.051763	0.055759	0.997577	-0.041618	-0.049408	0.044388	0.997792						
04656														-2.869256	-13.068769	1.666161	0.996869	-0.061361	0.049879	0.060724	0.998054	0.014186	-0.050652	-0.011113	0.998655						
04657														-4.485193	-11.418967	-2.763485	0.997139	-0.064588	0.039266	0.061599	0.995422	0.073074	-0.043806	-0.070446	0.996553						
04658														-2.580358	-12.725966	-6.209303	0.998606	-0.031811	0.042127	0.026555	0.992429	0.119917	-0.045622	-0.118631	0.991890						
04659														1.220328	-11.497101	-6.145677	0.996960	-0.057237	0.052864	0.048299	0.986398	0.157117	-0.061138	-0.154086	0.986164						
04660														2.996529	-10.729605	-2.487690	0.994496	-0.082617	0.064432	0.068789	0.978741	0.193222	-0.079026	-0.187726	0.979037						
04661														1.301748	-10.284065	-0.664367	0.989255	-0.130943	0.065030	0.113205	0.967514	0.226054	-0.092518	-0.216263	0.971942						
04662														-1.670989	-10.230345	-1.129653	0.978959	-0.196153	0.056235	0.175924	0.950949	0.254452	-0.103388	-0.239206	0.965449						
04663														-3.873295	-9.401335	-1.567867	0.966308	-0.253676	0.043557	0.231788	0.931222	0.281245	-0.111906	-0.261674	0.958647						
04664														-5.219606	-8.056883	-0.761119	0.956667	-0.289144	0.034392	0.265245	0.914081	0.306760	-0.120135	-0.284345	0.951165						
04665														-5.546032	-7.361241	0.364025	0.953979	-0.298214	0.031486	0.271969	0.904658	0.328065	-0.126318	-0.304404	0.944130						
04666														-4.361337	-7.063969	0.713230	0.955245	-0.294057	0.032206	0.265519	0.900311	0.344877	-0.130408	-0.320891	0.938095						
04667														-3.153039	-6.809103	0.381259	0.958703	-0.282098	0.036195	0.251023	0.899105	0.358605	-0.133705	-0.334710	0.932787						
04668														-1.228568	-6.841107	0.608306	0.963163	-0.265108	0.045118	0.230203	0.899535	0.371274	-0.139013	-0.347211	0.927427						
04669														0.589338	-7.009185	1.707408	0.964738	-0.257528	0.054399	0.218337	0.898411	0.381033	-0.146999	-0.355720	0.922960						
04670														1.223455	-7.509898	2.468606	0.962765	-0.263763	0.059261	0.221573	0.895492	0.386004	-0.154881	-0.358500	0.920592						
04671														1.008206	-7.451604	3.536309	0.960930	-0.268988	0.065263	0.223766	0.893721	0.388834	-0.162918	-0.359039	0.918993						
04672														0.823084	-7.120546	4.436728	0.959856	-0.270180	0.075365	0.220708	0.893310	0.391517	-0.173104	-0.359167	0.917079						
04673														1.175893	-8.363320	5.645273	0.958166	-0.271661	0.090097	0.216500	0.893837	0.392662	-0.187203	-0.356729	0.915259						
04674														0.828734	-7.998942	6.172439	0.948432	-0.303099	0.092779	0.243657	0.884332	0.398230	-0.202751	-0.355088	0.912581						
04675														-4.306353	-10.721589	-3.302633	0.933740	-0.347540	0.085701	0.295752	0.883923	0.362229	-0.201642	-0.312882	0.928141						
04676														-1.126719	-16.529439	5.242205	0.939804	-0.324014	0.108551	0.264891	0.891467	0.367587	-0.215872	-0.316705	0.923632						
04677														-5.903298	-8.411128	-0.330417	0.924137	-0.370331	0.093945	0.318040	0.881916	0.347957	-0.211711	-0.291682	0.932792						
04678														-2.056998	-6.110869	-2.488974	0.935407	-0.334851	0.113529	0.282283	0.900606	0.330492	-0.212910	-0.277097	0.936956						
04679														1.586535	-9.297657	-2.481562	0.946668	-0.292865	0.134350	0.241377	0.920794	0.306391	-0.213440	-0.257621	0.942377						
04680														4.671040	-13.269456	-2.179951	0.951367	-0.271595	0.145383	0.223248	0.933038	0.282136	-0.212275	-0.235958	0.948295						
04681														2.512454	-11.809466	-1.472595	0.953437	-0.262427	0.148630	0.217112	0.939288	0.265706	-0.209335	-0.221064	0.952528						
04682														0.259384	-9.958209	-0.504322	0.954786	-0.257247	0.149023	0.216420	0.945097	0.244855	-0.203830	-0.201532	0.958039						
04683														-0.859905	-9.722208	-1.106335	0.958392	-0.242890	0.149963	0.207124	0.953214	0.220188	-0.196428	-0.179966	0.963861						
04684														-0.319798	-10.208600	-1.343719	0.963089	-0.223062	0.150674	0.192628	0.962094	0.193055	-0.188025	-0.156905	0.969550						
04685														0.602040	-9.770826	-1.764422	0.968039	-0.200905	0.150124	0.175961	0.970595	0.164265	-0.178711	-0.132599	0.974926						
04686														1.365325	-9.396051	-1.732448	0.973149	-0.176430	0.147828	0.157111	0.978506	0.133573	-0.168216	-0.106761	0.979952						
04687														2.354388	-9.013342	-1.492262	0.977538	-0.154137	0.143740	0.140478	0.984936	0.100828	-0.157116	-0.078371	0.984466						
04688														2.340005	-8.966292	-1.825723	0.979913	-0.145853	0.136006	0.137668	0.988154	0.067813	-0.144286	-0.047727	0.988384						
04689														0.829193	-8.809816	-1.121597	0.980441	-0.152327	0.124624	0.149198	0.988218	0.034123	-0.128354	-0.014862	0.991617						
04690														-0.713300	-8.542562	-0.511679	0.979223	-0.168127	0.113387	0.169287	0.985567	-0.000609	-0.111648	0.019791	0.993551						
04691														-1.527194	-8.829276	-0.339816	0.978911	-0.176313	0.103183	0.180770	0.982885	-0.035492	-0.095159	0.053396	0.994029						
04692														-1.282292	-10.024200	0.027771	0.982545	-0.162756	0.090092	0.168977	0.983386	-0.066330	-0.077799	0.080396	0.993722						
04693														0.045297	-10.221316	1.161623	0.987859	-0.136246	0.074638	0.142920	0.985366	-0.092884	-0.060891	0.102424	0.992875						
04694														0.846448	-12.982700	0.123131	0.991937	-0.110919	0.061305	0.117650	0.985770	-0.120063	-0.047115	0.126307	0.990872						
04695														1.716208	-13.228383	4.223076	0.994841	-0.086169	0.053541	0.092332	0.987727	-0.125973	-0.042029	0.130267	0.990588						
04696														1.308390	-10.565951	4.711096	0.996458	-0.068788	0.048372	0.074413	0.989213	-0.126177	-0.039171	0.129330	0.990828						
04697														0.262688	-9.681991	-1.016503	0.998075	-0.049134	0.037847	0.053527	0.990651	-0.125481	-0.031327	0.127265	0.991374						
04698														0.423655	-9.702362	-2.304761	0.999035	-0.031992	0.030089	0.035327	0.992412	-0.117770	-0.026092	0.118720	0.992585						
04699														1.014891	-10.334304	-0.578176	0.999107	-0.028126	0.031526	0.031260	0.994110	-0.103766	-0.028421	0.104659	0.994102						
04700														0.334433	-11.106866	0.008412	0.998900	-0.027653	0.037860	0.030578	0.996407	-0.078986	-0.035539	0.080057	0.996157						
04701														-1.415989	-10.813975	-0.387833	0.998608	-0.030669	0.042924	0.032624	0.998426	-0.045628	-0.041457	0.046965	0.998036						
04702														-3.959816	-11.190956	0.336809	0.998538	-0.031390	0.044002	0.031784	0.999460	-0.008284	-0.043719	0.009671	0.998997						
04703														-4.571590	-12.156150	0.935984	0.998979	-0.023571	0.038542	0.022246	0.999159	0.034449	-0.039322	-0.033557	0.998663						
04704														-4.148626	-12.520449	-0.330282	0.999270	-0.019712	0.032725	0.016964	0.996469	0.082224	-0.034230	-0.081609	0.996076						
04705														-3.362068	-12.403597	-2.553898	0.999339	-0.019679	0.030569	0.015544	0.991383	0.130069	-0.032865	-0.129507	0.991034						
04706														-1.798543	-12.323137	-3.751227	0.999418	-0.007802	0.033211	0.001928	0.984856	0.173365	-0.034061	-0.173200	0.984298						
04707														0.351496	-12.448439	-3.679521	0.999214	-0.002139	0.039579	-0.006240	0.977601	0.210373	-0.039143	-0.210455	0.976820						
04708														1.377291	-11.387502	-2.159259	0.998806	-0.022086	0.043579	0.010799	0.969727	0.243951	-0.047647	-0.243189	0.968808						
04709														-0.179926	-10.021281	-1.491378	0.997243	-0.062914	0.039339	0.049772	0.960381	0.274209	-0.055032	-0.271495	0.960865						
04710														-2.811210	-9.220615	-1.420634	0.993784	-0.107422	0.029211	0.093659	0.948637	0.302184	-0.060172	-0.297570	0.952802						
04711														-3.824255	-9.053772	-0.926221	0.990490	-0.135809	0.022008	0.121279	0.937414	0.326415	-0.064961	-0.320641	0.944970						
04712														-2.454059	-8.512247	0.109858	0.987665	-0.155356	0.019536	0.139056	0.927631	0.346647	-0.071975	-0.339655	0.937792						
04713														-2.431374	-7.564669	0.663003	0.983454	-0.180350	0.017108	0.162148	0.918427	0.360832	-0.080788	-0.352087	0.932474						
04714														-3.433885	-6.113674	0.809007	0.981047	-0.193103	0.016044	0.173259	0.911269	0.373591	-0.086762	-0.363731	0.927455						
04715														-2.494519	-6.124759	1.477008	0.982738	-0.183719	0.021755	0.161245	0.908245	0.386122	-0.090697	-0.375949	0.922191						
04716														-0.602998	-7.247588	2.182474	0.985383	-0.167319	0.032009	0.141121	0.906999	0.396784	-0.095421	-0.386467	0.917354						
04717														0.706109	-8.545404	2.246542	0.984380	-0.171585	0.039433	0.141208	0.903238	0.405242	-0.105151	-0.393343	0.913359						
04718														0.014322	-8.475888	2.568908	0.980393	-0.192602	0.041651	0.158633	0.896798	0.413025	-0.116902	-0.398320	0.909767						
04719														-0.525835	-7.979978	3.648755	0.976706	-0.210150	0.043383	0.172652	0.889686	0.422671	-0.127421	-0.405335	0.905244						
04720														-0.311272	-7.521343	4.084616	0.974321	-0.220268	0.046691	0.179394	0.884716	0.430227	-0.136073	-0.410803	0.901512						
04721														-0.452432	-7.103883	3.360432	0.971828	-0.230190	0.050617	0.186716	0.882985	0.430667	-0.143830	-0.409083	0.901090						
04722														-1.827523	-6.578162	3.289546	0.969173	-0.240032	0.055576	0.195265	0.885859	0.420862	-0.150253	-0.397036	0.905420						
04723														-2.313507	-7.766031	4.549320	0.968099	-0.242408	0.063423	0.195943	0.890162	0.411362	-0.156174	-0.385812	0.909263						
04724														-1.553715	-9.749558	2.513857	0.964292	-0.255111	0.071130	0.208720	0.897354	0.388835	-0.163025	-0.360104	0.918558						
04725														-3.660558	-16.154103	1.534303	0.966790	-0.238864	0.090890	0.188537	0.906677	0.377346	-0.172543	-0.347678	0.921601						
04726														-2.252682	-11.946896	5.059405	0.963043	-0.252108	0.094811	0.198726	0.902672	0.381696	-0.181812	-0.348748	0.919412						
04727														-3.237762	-6.418364	-1.750849	0.960161	-0.265253	0.087935	0.216305	0.904680	0.367105	-0.176929	-0.333459	0.926014						
04728														-1.043667	-5.591210	-3.683377	0.966796	-0.232863	0.105263	0.182333	0.917175	0.354323	-0.179053	-0.323365	0.929180						
04729														5.239261	-10.101265	-0.598777	0.965801	-0.227748	0.123935	0.175306	0.925745	0.335059	-0.191041	-0.301873	0.934011						
04730														4.921062	-13.802771	-0.068069	0.958809	-0.253194	0.128759	0.200500	0.924348	0.324625	-0.201211	-0.285437	0.937038						
04731														0.437490	-11.188051	1.587497	0.953144	-0.274093	0.128020	0.221813	0.920966	0.320343	-0.205706	-0.276937	0.938611						
04732														-0.563904	-9.350218	1.333057	0.949449	-0.286097	0.129209	0.235442	0.921219	0.309714	-0.207638	-0.263636	0.942010						
04733														0.561394	-9.647006	0.132736	0.948855	-0.285607	0.134546	0.237475	0.926483	0.291951	-0.208038	-0.245068	0.946922						
04734														0.886623	-10.523516	-0.499863	0.948973	-0.282847	0.139455	0.238312	0.932819	0.270288	-0.206537	-0.223262	0.952626						
04735														1.160138	-10.888119	-0.599144	0.950357	-0.275691	0.144276	0.235817	0.940643	0.244093	-0.203006	-0.197953	0.958959						
04736														1.205257	-10.298738	-0.739089	0.952040	-0.268377	0.146951	0.234313	0.948333	0.213918	-0.196769	-0.169226	0.965735						
04737														1.106582	-9.738518	-1.285503	0.953735	-0.262254	0.147008	0.234899	0.955194	0.180073	-0.187646	-0.137210	0.972606						
04738														0.858114	-9.336623	-1.617309	0.954701	-0.259884	0.144935	0.239532	0.960170	0.143868	-0.176551	-0.102635	0.978926						
04739														-0.024509	-8.852154	-1.223575	0.956073	-0.256904	0.141154	0.243381	0.964099	0.106203	-0.163371	-0.067183	0.984275						
04740														-1.335769	-8.627095	-0.630952	0.959075	-0.250571	0.131865	0.243695	0.967590	0.066195	-0.144178	-0.031351	0.989055						
04741														-1.728132	-8.810812	0.159940	0.964120	-0.237391	0.118818	0.236246	0.971401	0.023838	-0.121078	0.005087	0.992630						
04742														-0.829274	-8.985748	0.394522	0.971100	-0.215642	0.102295	0.218425	0.975711	-0.016704	-0.096208	0.038566	0.994614						
04743														0.412313	-9.050495	0.292602	0.978991	-0.185648	0.084332	0.190313	0.980395	-0.051064	-0.073199	0.066040	0.995128						
04744														0.832057	-9.200839	-1.317217	0.986874	-0.148025	0.064566	0.153028	0.984897	-0.080994	-0.051602	0.089811	0.994621						
04745														0.750723	-9.408209	-2.387622	0.992106	-0.117264	0.044443	0.121324	0.987191	-0.103602	-0.031725	0.108177	0.993625						
04746														1.157827	-13.011510	0.202503	0.993787	-0.105695	0.034875	0.109237	0.986297	-0.123634	-0.021330	0.126675	0.991715						
04747														1.730704	-13.291529	6.676026	0.993762	-0.105760	0.035376	0.109432	0.985890	-0.126668	-0.021480	0.129749	0.991314						
04748														1.832302	-12.457206	5.494558	0.993311	-0.109555	0.036484	0.113212	0.986176	-0.120997	-0.022724	0.124318	0.991982						
04749														0.184270	-12.087534	0.172382	0.994285	-0.101106	0.034279	0.104133	0.989249	-0.102673	-0.023529	0.105656	0.994124						
04750														-1.550470	-11.122724	-1.416618	0.996247	-0.079285	0.034717	0.081412	0.994568	-0.064858	-0.029386	0.067441	0.997290						
04751														-3.248356	-10.737448	-0.781746	0.996530	-0.073213	0.039605	0.074220	0.996939	-0.024560	-0.037686	0.027414	0.998914						
04752														-4.559379	-11.676693	-0.429857	0.996349	-0.074418	0.041852	0.073925	0.997176	0.013214	-0.042717	-0.010072	0.999036						
04753														-3.637977	-12.126619	0.780407	0.996630	-0.072194	0.038955	0.069772	0.995738	0.060317	-0.043143	-0.057395	0.997419						
04754														-2.977855	-11.875610	-1.568853	0.997640	-0.058173	0.036482	0.054221	0.993381	0.101263	-0.042131	-0.099046	0.994191						
04755														-2.389725	-12.417676	-4.525798	0.997159	-0.065500	0.037204	0.059527	0.987833	0.143673	-0.046162	-0.141050	0.988926						
04756														-1.981952	-11.875747	-4.534113	0.996700	-0.070620	0.040014	0.061908	0.980230	0.187925	-0.052494	-0.184827	0.981368						
04757														0.226229	-11.407327	-2.571969	0.996018	-0.077714	0.043680	0.066071	0.972448	0.223560	-0.059850	-0.219784	0.973711						
04758														0.626997	-10.633399	-0.704920	0.993316	-0.107901	0.040990	0.093912	0.961970	0.256504	-0.067108	-0.250940	0.965674						
04759														-2.379883	-9.619339	-0.022078	0.987712	-0.153314	0.030330	0.138173	0.947328	0.288925	-0.073028	-0.281184	0.956871						
04760														-4.438213	-8.986127	-0.274511	0.982513	-0.185214	0.019071	0.169328	0.931415	0.322172	-0.077434	-0.313309	0.946489						
04761														-4.150311	-7.767132	0.784821	0.982627	-0.184905	0.015966	0.167216	0.919374	0.356075	-0.080519	-0.347219	0.934321						
04762														-2.488923	-7.180429	1.709096	0.985005	-0.171275	0.020732	0.150289	0.910849	0.384406	-0.084723	-0.375526	0.922931						
04763														-0.990427	-6.804537	0.928852	0.985819	-0.165615	0.027050	0.140406	0.902329	0.407539	-0.091902	-0.397962	0.912787						
04764														-0.461326	-6.628303	0.519556	0.984393	-0.173058	0.031954	0.143240	0.893402	0.425810	-0.102237	-0.414588	0.904248						
04765														-0.023777	-6.339920	1.264368	0.982623	-0.181993	0.036480	0.147417	0.884616	0.442407	-0.112786	-0.429341	0.896072						
04766														1.082286	-6.381942	2.548808	0.979724	-0.196519	0.038988	0.157588	0.876053	0.455737	-0.123717	-0.440353	0.889260						
04767														1.274060	-6.838956	3.466744	0.974289	-0.222305	0.036615	0.180345	0.866924	0.464670	-0.135041	-0.446119	0.884727						
04768														-0.810135	-7.263649	4.473163	0.968120	-0.248442	0.031925	0.205223	0.859791	0.467593	-0.143619	-0.446135	0.883367						
04769														-2.197397	-7.703865	5.237865	0.966202	-0.255403	0.034982	0.209748	0.857768	0.469297	-0.149867	-0.446098	0.882347						
04770														-2.302426	-7.768327	4.560763	0.967799	-0.247400	0.046461	0.197979	0.862076	0.466508	-0.155467	-0.442287	0.883296						
04771														-1.622292	-7.450628	4.361247	0.969417	-0.237904	0.060262	0.184628	0.868738	0.459572	-0.161686	-0.434391	0.886094						
04772														-1.618906	-5.948817	5.498675	0.964474	-0.257222	0.060219	0.204527	0.871320	0.446060	-0.167206	-0.417897	0.892975						
04773														-1.287166	-10.185144	4.322892	0.958500	-0.274428	0.077247	0.218910	0.882037	0.417240	-0.182637	-0.383015	0.905507						
04774														0.005624	-20.257811	-0.710598	0.945889	-0.310925	0.092843	0.247325	0.876030	0.414008	-0.210058	-0.368643	0.905526						
04775														-1.368676	-7.082531	1.278398	0.940819	-0.326447	0.091059	0.267649	0.880500	0.391260	-0.207903	-0.343733	0.915764						
04776														-5.035148	-7.419548	-5.066270	0.943441	-0.319625	0.088089	0.267336	0.890539	0.368064	-0.196089	-0.323697	0.925618						
04777														0.406733	-10.813727	-1.611829	0.951014	-0.289176	0.109315	0.237603	0.909923	0.339979	-0.197782	-0.297351	0.934058						
04778														2.085966	-13.149304	-1.759411	0.954300	-0.272153	0.123469	0.223555	0.924272	0.309427	-0.198330	-0.267684	0.942873						
04779														2.793873	-11.970471	-0.994736	0.953551	-0.270392	0.132773	0.224119	0.931324	0.287065	-0.201275	-0.243974	0.948665						
04780														-0.670282	-8.379617	-0.119274	0.953605	-0.268830	0.135527	0.225900	0.936513	0.268163	-0.199013	-0.225107	0.953793						
04781														-0.314607	-9.349734	0.064604	0.957884	-0.250449	0.140476	0.211928	0.946674	0.242684	-0.193765	-0.202693	0.959881						
04782														1.064240	-10.174795	-0.067367	0.962269	-0.231934	0.142283	0.198109	0.955640	0.217955	-0.186523	-0.181544	0.965532						
04783														2.098407	-10.070557	-0.103402	0.965289	-0.218333	0.143348	0.188775	0.962506	0.194798	-0.180504	-0.160975	0.970312						
04784														1.712332	-9.646041	-0.119803	0.965776	-0.215439	0.144440	0.189466	0.966273	0.174410	-0.177144	-0.141075	0.974022						
04785														1.070234	-9.525314	0.031687	0.966184	-0.214054	0.143767	0.191628	0.969134	0.155107	-0.172530	-0.122312	0.977381						
04786														0.031746	-9.269984	-0.055627	0.968038	-0.208491	0.139408	0.190205	0.972587	0.133776	-0.163477	-0.102985	0.981157						
04787														0.050062	-9.557536	-0.569697	0.969780	-0.203798	0.134138	0.189701	0.975579	0.110723	-0.153427	-0.081930	0.984758						
04788														-0.183820	-9.598439	-0.717905	0.971190	-0.199847	0.129811	0.189393	0.977901	0.088543	-0.144637	-0.061406	0.987578						
04789														-0.298164	-9.613700	-0.348279	0.972870	-0.194340	0.125523	0.187556	0.980174	0.063892	-0.135451	-0.038616	0.990031						
04790														-0.066724	-9.876774	-0.299413	0.974747	-0.188364	0.119949	0.185373	0.982019	0.035728	-0.124522	-0.012590	0.992137						
04791														-0.650868	-9.745290	-0.289701	0.977137	-0.181008	0.111535	0.181540	0.983368	0.005451	-0.110666	0.014921	0.993746						
04792														-0.254826	-9.253593	0.540772	0.980687	-0.166931	0.101913	0.170385	0.985031	-0.026119	-0.096027	0.042979	0.994450						
04793														1.135294	-9.181063	0.297750	0.986547	-0.137606	0.088257	0.143009	0.988014	-0.058110	-0.079203	0.069950	0.994401						
04794														1.939084	-10.223614	-0.197860	0.992638	-0.099505	0.069058	0.104864	0.991354	-0.078878	-0.060613	0.085539	0.994489						
04795														0.978363	-10.651588	0.182021	0.995896	-0.073796	0.052396	0.078082	0.993306	-0.085129	-0.045763	0.088870	0.994991						
04796														0.915974	-11.083616	0.313221	0.997240	-0.060345	0.043251	0.064034	0.993907	-0.089716	-0.037574	0.092238	0.995028						
04797														1.864992	-10.865606	1.129327	0.998054	-0.050075	0.037147	0.053398	0.994077	-0.094659	-0.032187	0.096459	0.994816						
04798														1.735111	-10.109066	0.449854	0.998902	-0.036899	0.028864	0.039573	0.994363	-0.098371	-0.025071	0.099406	0.994731						
04799														1.080045	-10.764760	-1.798091	0.999495	-0.023365	0.021549	0.025333	0.995048	-0.096116	-0.019196	0.096613	0.995137						
04800														0.194707	-11.200847	-1.547090	0.999608	-0.018722	0.020831	0.020384	0.996369	-0.082663	-0.019208	0.083056	0.996360						
04801														-1.392164	-11.156831	0.043163	0.999410	-0.022442	0.026017	0.023942	0.997980	-0.058839	-0.024644	0.059428	0.997928						
04802														-2.929819	-10.519430	1.045732	0.999122	-0.027423	0.031660	0.028370	0.999152	-0.029840	-0.030815	0.030712	0.999053						
04803														-4.138118	-11.454193	2.204467	0.999080	-0.024647	0.035099	0.024599	0.999696	0.001802	-0.035132	-0.000937	0.999382						
04804														-4.138024	-12.520555	1.897125	0.999110	-0.023151	0.035260	0.021594	0.998801	0.043924	-0.036235	-0.043124	0.998412						
04805														-2.499168	-11.590893	0.328015	0.998939	-0.030693	0.034338	0.027177	0.994760	0.098560	-0.037183	-0.097522	0.994539						
04806														-1.355344	-13.021961	-3.859549	0.998806	-0.029098	0.039251	0.022960	0.988624	0.148646	-0.043129	-0.147567	0.988111						
04807														-0.887902	-12.544184	-5.391089	0.998012	-0.042956	0.046119	0.033291	0.980641	0.192965	-0.053515	-0.191046	0.980121						
04808														-0.505258	-11.290646	-3.249226	0.996361	-0.067543	0.051989	0.053633	0.970882	0.233478	-0.066245	-0.229841	0.970971						
04809														-0.156207	-10.371076	-0.537356	0.993518	-0.101564	0.051060	0.084338	0.959729	0.267969	-0.076220	-0.261926	0.962074						
04810														-2.222645	-9.880037	-0.695548	0.988608	-0.143821	0.044383	0.124033	0.945499	0.301077	-0.085265	-0.292142	0.952566						
04811														-3.642129	-8.973241	-0.902158	0.983519	-0.177068	0.036556	0.155119	0.930254	0.332515	-0.092884	-0.321364	0.942389						
04812														-3.575443	-7.923260	-0.363980	0.980608	-0.193101	0.033454	0.168556	0.918109	0.358700	-0.099980	-0.346105	0.932853						
04813														-3.058080	-7.147006	0.136164	0.978973	-0.201044	0.034535	0.173500	0.909671	0.377354	-0.107281	-0.363428	0.925425						
04814														-2.377749	-6.744255	0.302027	0.977682	-0.206547	0.038418	0.175411	0.903176	0.391796	-0.115623	-0.376313	0.919250						
04815														-1.744208	-6.167398	0.597488	0.976711	-0.209928	0.044340	0.174952	0.898853	0.401815	-0.124208	-0.384700	0.914647						
04816														-0.688453	-6.111614	1.261228	0.976405	-0.209437	0.052628	0.170843	0.898236	0.404951	-0.132084	-0.386405	0.912822						
04817														0.634291	-6.827380	1.968963	0.973895	-0.219588	0.057538	0.178629	0.897746	0.402670	-0.140076	-0.381880	0.913535						
04818														0.061048	-7.485401	2.595649	0.968782	-0.241161	0.057475	0.199635	0.896322	0.395919	-0.146997	-0.372085	0.916485						
04819														-0.928120	-7.514938	4.230948	0.964842	-0.255978	0.059631	0.213468	0.895557	0.390397	-0.153336	-0.363942	0.918714						
04820														-1.659373	-7.501104	6.970279	0.965046	-0.252808	0.069090	0.207805	0.898761	0.386065	-0.159696	-0.358213	0.919881						
04821														-1.283062	-9.278310	7.885242	0.966050	-0.244095	0.084647	0.195852	0.905590	0.376229	-0.168491	-0.346878	0.922652						
04822														0.873182	-9.177535	6.248521	0.960190	-0.264689	0.089296	0.212578	0.899738	0.381159	-0.181232	-0.347003	0.920187						
04823														-3.616600	-8.899679	-6.417707	0.947184	-0.308944	0.086006	0.262426	0.900845	0.345848	-0.184326	-0.305011	0.934341						
04824														-0.455481	-15.508169	2.832228	0.957387	-0.261443	0.122711	0.203419	0.912042	0.356090	-0.205015	-0.315954	0.926359						
04825														-0.931080	-9.715695	1.131490	0.944246	-0.309669	0.111826	0.258227	0.907262	0.331954	-0.204252	-0.284570	0.936644						
04826														-3.255124	-7.642076	-5.469774	0.951212	-0.284945	0.118330	0.237132	0.920531	0.310469	-0.197393	-0.267262	0.943190						
04827														1.043032	-10.452710	-1.814333	0.957573	-0.254758	0.134733	0.208297	0.934905	0.287342	-0.199166	-0.247086	0.948305						
04828														3.069954	-12.525774	-1.689722	0.957689	-0.250076	0.142458	0.207504	0.942956	0.260337	-0.199436	-0.219761	0.954950						
04829														1.991588	-10.910238	-1.305225	0.958528	-0.245440	0.144855	0.206743	0.948666	0.239354	-0.196166	-0.199480	0.960066						
04830														0.114831	-9.258375	-0.241946	0.959118	-0.243555	0.144132	0.209540	0.953464	0.216791	-0.190226	-0.177727	0.965519						
04831														-0.131359	-9.698109	-0.752439	0.961038	-0.235725	0.144357	0.206842	0.959721	0.190135	-0.183362	-0.152868	0.971087						
04832														1.118192	-10.374799	-0.865536	0.964185	-0.222203	0.144822	0.198277	0.966519	0.162875	-0.176164	-0.128327	0.975960						
04833														0.713339	-9.545563	-0.685430	0.967661	-0.208117	0.142543	0.188789	0.972280	0.137954	-0.167302	-0.106582	0.980128						
04834														0.417163	-9.293694	-0.343420	0.971340	-0.193550	0.137978	0.178590	0.977330	0.113715	-0.156860	-0.085814	0.983886						
04835														0.530127	-9.073586	-0.239626	0.975508	-0.175975	0.131973	0.165048	0.982199	0.089691	-0.145407	-0.065712	0.987187						
04836														1.138544	-9.524249	-0.543271	0.979389	-0.158589	0.125084	0.151239	0.986273	0.066275	-0.133878	-0.045992	0.989930						
04837														1.412024	-9.714732	-0.304721	0.981701	-0.148510	0.119198	0.144043	0.988534	0.045303	-0.124559	-0.027304	0.991836						
04838														0.764639	-9.598204	-0.377438	0.982741	-0.145643	0.114051	0.143717	0.989304	0.024979	-0.116469	-0.008157	0.993161						
04839														0.236624	-9.284715	-0.302353	0.983961	-0.142834	0.106862	0.143305	0.989673	0.003294	-0.106229	0.012073	0.994268						
04840														0.177452	-9.548912	-0.426006	0.985816	-0.136771	0.097263	0.139301	0.990054	-0.019683	-0.093603	0.032952	0.995064						
04841														0.000821	-9.825563	-0.670296	0.988242	-0.126687	0.085601	0.130548	0.990590	-0.041100	-0.079589	0.051792	0.995481						
04842														0.184258	-9.584666	-1.464652	0.990309	-0.117097	0.074677	0.121727	0.990700	-0.060788	-0.066864	0.069289	0.995353						
04843														0.223190	-9.797696	-2.216756	0.992118	-0.106977	0.065247	0.112171	0.990303	-0.081956	-0.055847	0.088629	0.994498						
04844														0.170779	-10.048636	-0.506841	0.993320	-0.100106	0.057400	0.105399	0.989578	-0.098116	-0.046980	0.103510	0.993518						
04845														-0.237081	-9.849487	1.181850	0.993879	-0.097850	0.051284	0.102991	0.988620	-0.109654	-0.039970	0.114265	0.992646						
04846														-0.609168	-9.749844	0.553096	0.994860	-0.091231	0.043942	0.095872	0.988288	-0.118725	-0.032596	0.122327	0.991954						
04847														-0.067552	-10.404481	-0.602919	0.996280	-0.078751	0.034982	0.082599	0.988420	-0.127290	-0.024553	0.129706	0.991248						
04848														0.294169	-11.675050	-1.526426	0.997566	-0.064345	0.026848	0.067345	0.988939	-0.132156	-0.018047	0.133642	0.990865						
04849														-0.468144	-12.300575	-1.583471	0.998584	-0.048465	0.021937	0.050830	0.990898	-0.124653	-0.015696	0.125592	0.991958						
04850														-1.199520	-11.635377	-0.331087	0.999132	-0.035244	0.022196	0.037317	0.994166	-0.101202	-0.018500	0.101942	0.994618						
04851														-1.548059	-10.965075	1.460090	0.999353	-0.025838	0.025000	0.027489	0.997298	-0.068126	-0.023172	0.068769	0.997363						
04852														-2.439691	-11.727294	2.668487	0.999476	-0.018720	0.026409	0.019564	0.999294	-0.032084	-0.025790	0.032584	0.999136						
04853														-2.686648	-12.192104	2.074851	0.999431	-0.019197	0.027747	0.018912	0.999766	0.010475	-0.027941	-0.009944	0.999560						
04854														-2.710998	-12.039037	-0.488235	0.999168	-0.030196	0.027408	0.028369	0.997496	0.064790	-0.029296	-0.063958	0.997522						
04855														-3.684910	-12.471467	-5.824582	0.999372	-0.023473	0.026561	0.020209	0.992915	0.117099	-0.029121	-0.116489	0.992765						
04856														-1.969481	-12.397050	-5.984595	0.998793	-0.037914	0.031225	0.032320	0.986025	0.163432	-0.036985	-0.162225	0.986060						
04857														-0.817682	-11.959674	-2.997269	0.998446	-0.040846	0.037907	0.032142	0.977807	0.207028	-0.045522	-0.205488	0.977600						
04858														0.007394	-10.170636	-0.129007	0.997310	-0.061753	0.039486	0.050241	0.968172	0.245190	-0.053370	-0.242547	0.968671						
04859														-2.379872	-9.318138	-1.148824	0.994094	-0.103652	0.032156	0.090614	0.955809	0.279677	-0.059724	-0.275111	0.959556						
04860														-2.988286	-8.891757	-0.979192	0.991562	-0.127214	0.024917	0.113103	0.942923	0.313217	-0.063340	-0.307756	0.949355						
04861														-2.785140	-8.339509	-0.620524	0.990478	-0.136052	0.021056	0.120597	0.931205	0.343969	-0.066405	-0.338154	0.938745						
04862														-2.584773	-7.931604	-0.194811	0.989624	-0.142236	0.020304	0.124788	0.920931	0.369206	-0.071213	-0.362842	0.929126						
04863														-2.668597	-7.167891	0.163699	0.988411	-0.150363	0.020863	0.130415	0.911431	0.390238	-0.077692	-0.382995	0.920478						
04864														-2.032011	-6.548337	0.765316	0.987810	-0.153585	0.025342	0.130190	0.904394	0.406352	-0.085329	-0.398099	0.913365						
04865														-0.530075	-6.987009	1.728516	0.988298	-0.148239	0.035947	0.119720	0.899869	0.419408	-0.094520	-0.410197	0.907086						
04866														0.699488	-7.037283	2.416953	0.986325	-0.159559	0.041281	0.126740	0.894417	0.428899	-0.105358	-0.417802	0.902409						
04867														0.246521	-6.943786	2.298364	0.982369	-0.182607	0.040071	0.147752	0.889667	0.432044	-0.114544	-0.418506	0.900962						
04868														0.057353	-6.914724	3.537918	0.978649	-0.201708	0.039497	0.165238	0.886384	0.432458	-0.122240	-0.416698	0.900789						
04869														-0.328397	-7.338398	4.277056	0.976286	-0.212117	0.043279	0.173127	0.885010	0.432185	-0.129976	-0.414444	0.900746						
04870														-0.868340	-7.673708	4.210388	0.974635	-0.218177	0.049845	0.176772	0.887088	0.426411	-0.137250	-0.406785	0.903155						
04871														-1.535258	-8.221751	3.624284	0.973063	-0.223306	0.057299	0.180331	0.892101	0.414290	-0.143630	-0.392798	0.908339						
04872														-1.545063	-8.962768	2.862458	0.970637	-0.231031	0.066998	0.186157	0.897830	0.399057	-0.152348	-0.374868	0.914475						
04873														0.404516	-7.584068	3.794899	0.964987	-0.251090	0.075860	0.204733	0.901807	0.380564	-0.163967	-0.351708	0.921638						
04874														-3.947410	-15.423252	-2.894099	0.957019	-0.273430	0.096697	0.226835	0.913434	0.337912	-0.180721	-0.301455	0.936197						
04875														-1.659893	-15.955692	5.699820	0.954992	-0.272919	0.116212	0.220483	0.915177	0.337398	-0.198437	-0.296590	0.934161						
04876														-6.408287	-7.270465	-5.366210	0.945719	-0.310583	0.095680	0.268553	0.912658	0.308114	-0.183018	-0.265694	0.946526						
04877														-3.174044	-5.181974	-2.609484	0.958383	-0.261706	0.114072	0.222594	0.935199	0.275416	-0.178758	-0.238562	0.954533						
04878														1.920570	-11.250330	-1.775994	0.967580	-0.217557	0.128286	0.183327	0.954362	0.235762	-0.173723	-0.204601	0.963306						
04879														4.345056	-12.391875	-0.524286	0.968768	-0.208293	0.134549	0.178228	0.962139	0.206210	-0.172407	-0.175789	0.969213						
04880														2.851722	-9.818464	0.632286	0.970086	-0.200084	0.137479	0.173582	0.967596	0.183377	-0.169715	-0.154028	0.973382						
04881														1.551148	-9.693601	0.138804	0.971032	-0.195477	0.137423	0.172924	0.971782	0.160430	-0.164905	-0.132019	0.977434						
04882														0.653607	-9.982372	-0.331330	0.971725	-0.193319	0.135565	0.174453	0.974731	0.139516	-0.159111	-0.111922	0.980896						
04883														-0.889981	-9.572374	-0.043984	0.974841	-0.179898	0.131612	0.164708	0.979202	0.118466	-0.150187	-0.093808	0.984197						
04884														-0.288964	-9.789358	-0.150070	0.978823	-0.158672	0.129336	0.146697	0.984371	0.097431	-0.142774	-0.076395	0.986803						
04885														0.584575	-9.596971	-0.419255	0.982301	-0.138376	0.126239	0.129396	0.988615	0.076799	-0.135429	-0.059105	0.989023						
04886														0.818739	-9.279062	-0.752090	0.984984	-0.121670	0.122489	0.115476	0.991703	0.056488	-0.128346	-0.041495	0.990861						
04887														1.226685	-9.788782	-0.986644	0.986636	-0.111470	0.118847	0.107641	0.993456	0.038189	-0.122326	-0.024886	0.992178						
04888														0.815239	-9.769980	-0.920225	0.987588	-0.107521	0.114495	0.105656	0.994154	0.022253	-0.116219	-0.009880	0.993175						
04889														0.335059	-9.748600	-0.849128	0.988402	-0.104847	0.109855	0.104645	0.994480	0.007610	-0.110046	0.003974	0.993919						
04890														0.252368	-9.773158	-0.992791	0.988901	-0.104679	0.105437	0.105910	0.994357	-0.006133	-0.104200	0.017232	0.994407						
04891														0.219961	-9.707130	-1.776805	0.989427	-0.104298	0.100777	0.106846	0.994070	-0.020214	-0.098071	0.030768	0.994704						
04892														0.420399	-9.703496	-1.624601	0.989656	-0.105182	0.097563	0.108880	0.993494	-0.033382	-0.093417	0.043659	0.994669						
04893														0.407870	-9.499874	-0.825912	0.989636	-0.107555	0.095144	0.112406	0.992542	-0.047168	-0.089361	0.057374	0.994345						
04894														0.175859	-9.547591	-0.709728	0.990242	-0.105998	0.090473	0.111753	0.991856	-0.061099	-0.083260	0.070613	0.994023						
04895														-0.203634	-9.976501	-1.180071	0.991434	-0.100254	0.083715	0.106415	0.991662	-0.072684	-0.075730	0.080970	0.993835						
04896														-0.266248	-10.086213	-1.700380	0.992837	-0.091221	0.077162	0.097458	0.991909	-0.081354	-0.069117	0.088291	0.993694						
04897														-1.046571	-9.864904	-2.275248	0.993893	-0.084473	0.070994	0.090599	0.991989	-0.088034	-0.062989	0.093929	0.993584						
04898														-1.436783	-9.624626	-1.601747	0.995376	-0.070902	0.064802	0.076740	0.992746	-0.092554	-0.057770	0.097099	0.993597						
04899														-0.601724	-9.915002	-1.184641	0.996859	-0.054043	0.057890	0.059567	0.993364	-0.098387	-0.052188	0.101526	0.993463						
04900														-0.176158	-9.923659	-1.639982	0.998314	-0.033216	0.047611	0.037982	0.993959	-0.102971	-0.043903	0.104606	0.993544						
04901														0.181187	-9.440060	-1.341806	0.999317	-0.010859	0.035326	0.014547	0.994272	-0.105889	-0.033974	0.106331	0.993750						
04902														0.823844	-9.193393	-0.742206	0.999687	0.009238	0.023255	-0.006669	0.994104	-0.108227	-0.024118	0.108038	0.993854						
04903														1.368286	-9.514557	-0.730894	0.999683	0.021406	0.013283	-0.019811	0.993691	-0.110387	-0.015563	0.110089	0.993800						
04904														1.597186	-10.635119	-0.934785	0.999574	0.028822	0.004593	-0.028143	0.993536	-0.109973	-0.007733	0.109797	0.993924						
04905														1.320515	-12.118491	0.051984	0.999429	0.033737	-0.002022	-0.033767	0.994186	-0.102249	-0.001439	0.102259	0.994757						
04906														0.063233	-12.945258	1.715187	0.999333	0.036386	-0.002995	-0.036508	0.996295	-0.077873	0.000151	0.077930	0.996959						
04907														-2.105181	-12.021148	3.822556	0.999492	0.031759	0.002529	-0.031652	0.998897	-0.034695	-0.003628	0.034597	0.999395						
04908														-4.548857	-11.876156	4.412039	0.999974	0.003112	0.006553	-0.003318	0.999495	0.031615	-0.006451	-0.031636	0.999479						
04909														-8.614660	-12.229256	-2.825988	0.999972	-0.006412	-0.003800	0.006729	0.995900	0.090206	0.003207	-0.090229	0.995916						
04910														-5.035928	-14.393673	-3.241462	0.999778	0.020528	-0.004808	-0.019582	0.988626	0.149113	0.007815	-0.148986	0.988808						
04911														-1.848316	-13.256134	-5.641705	0.998691	0.049880	0.011351	-0.051124	0.980921	0.187562	-0.001779	-0.187897	0.982187						
04912														2.352517	-12.756944	-5.324472	0.997577	0.060351	0.034605	-0.066553	0.972755	0.222078	-0.020260	-0.223843	0.974415						
04913														1.876831	-11.840774	-1.337770	0.998545	0.030134	0.044730	-0.041148	0.961798	0.270650	-0.034865	-0.272096	0.961638						
04914														-0.554695	-9.767650	2.026050	0.999254	-0.017587	0.034393	0.005576	0.946691	0.322096	-0.038225	-0.321664	0.946082						
04915														-1.929769	-8.319576	2.002924	0.997986	-0.061308	0.016292	0.051277	0.930849	0.361788	-0.037346	-0.360224	0.932118						
04916														-2.734024	-8.199011	0.335616	0.994474	-0.104981	0.000446	0.096345	0.914345	0.393308	-0.041697	-0.391092	0.919407						
04917														-4.980185	-7.783927	-0.106046	0.991380	-0.130818	-0.007235	0.121442	0.896801	0.425441	-0.049167	-0.422652	0.904957						
04918														-4.861720	-7.722081	0.819327	0.989842	-0.142009	-0.006764	0.129241	0.878984	0.459002	-0.059237	-0.455214	0.888409						
04919														-3.623292	-7.521324	1.949103	0.990253	-0.139265	-0.002069	0.122141	0.861164	0.493435	-0.066937	-0.488879	0.869780						
04920														-1.360020	-7.836953	1.645289	0.992312	-0.123422	0.009148	0.100356	0.845711	0.524119	-0.072424	-0.519172	0.851596						
04921														0.043674	-7.784437	0.938883	0.993125	-0.115601	0.018422	0.086704	0.832154	0.547724	-0.078648	-0.542361	0.836456						
04922														0.972766	-7.129071	1.142107	0.992831	-0.116802	0.025383	0.082138	0.820975	0.565025	-0.086835	-0.558889	0.824683						
04923														1.023385	-6.298335	1.943336	0.991509	-0.127179	0.027117	0.088653	0.813658	0.574544	-0.095133	-0.567262	0.818024						
04924														0.331035	-5.297339	2.141596	0.989839	-0.140101	0.024295	0.100651	0.811045	0.576260	-0.100439	-0.567959	0.816906						
04925														-0.633557	-4.761013	1.619192	0.987948	-0.153763	0.017764	0.116534	0.814414	0.568462	-0.101876	-0.559541	0.822518						
04926														-1.575736	-5.120211	1.717511	0.986236	-0.164921	0.011842	0.131316	0.824767	0.550014	-0.100476	-0.540888	0.835072						
04927														-2.023771	-6.274223	3.145769	0.985503	-0.169198	0.012509	0.137738	0.840952	0.523286	-0.099059	-0.513977	0.852065						
04928														-3.051127	-8.480144	4.822634	0.985477	-0.168339	0.022293	0.135405	0.858237	0.495071	-0.102472	-0.484863	0.868566						
04929														-2.207299	-12.141248	8.255784	0.986493	-0.158696	0.040593	0.120452	0.870718	0.476803	-0.111011	-0.465473	0.878072						
04930														-1.152660	-14.995751	10.277939	0.984039	-0.173171	0.040968	0.133493	0.870600	0.473534	-0.117669	-0.460507	0.879822						
04931														-2.327137	-11.269719	7.012788	0.979950	-0.196646	0.032062	0.157411	0.862770	0.480469	-0.122145	-0.465788	0.876426						
04932														-3.001269	-7.564060	4.358162	0.976011	-0.216291	0.024921	0.177441	0.856539	0.484619	-0.126164	-0.468571	0.874371						
04933														-2.348692	-6.325170	2.871692	0.973472	-0.227321	0.026044	0.186379	0.853829	0.486045	-0.132725	-0.468297	0.873546						
04934														-1.021645	-6.693572	2.926682	0.970592	-0.238581	0.032098	0.193874	0.853734	0.483270	-0.142702	-0.462835	0.874883						
04935														-1.297197	-7.260618	4.188738	0.966648	-0.253077	0.039296	0.203940	0.853440	0.479634	-0.154921	-0.455623	0.876588						
04936														-1.661567	-4.805500	2.535721	0.959728	-0.279420	0.029091	0.234114	0.852730	0.466951	-0.155282	-0.441335	0.883805						
04937														-4.988862	-4.373874	-4.766425	0.963114	-0.266834	0.034798	0.226239	0.872949	0.432176	-0.145696	-0.408362	0.901118						
04938														-3.374580	-15.400022	0.666768	0.969428	-0.233216	0.076286	0.185694	0.900506	0.393201	-0.160397	-0.367015	0.916282						
04939														12.719869	-25.460964	14.814997	0.959951	-0.255966	0.113909	0.189794	0.893197	0.407649	-0.206088	-0.369704	0.906006						
04940														-1.316581	-4.602532	-3.925814	0.934941	-0.347626	0.071002	0.295828	0.874251	0.384929	-0.195885	-0.338882	0.920211						
04941														-9.650101	-0.482982	-7.319010	0.946536	-0.312538	0.079929	0.261568	0.888558	0.376891	-0.188815	-0.335834	0.922803						
04942														2.464563	-13.091896	1.702338	0.959169	-0.255311	0.121704	0.201279	0.918468	0.340446	-0.198701	-0.302049	0.932354						
04943														1.952422	-14.926113	-1.414958	0.958430	-0.256451	0.125078	0.206427	0.925851	0.316524	-0.196976	-0.277546	0.940302						
04944														2.272774	-9.646334	0.153432	0.959815	-0.247657	0.131990	0.199717	0.933214	0.298704	-0.197151	-0.260340	0.945174						
04945														2.213633	-9.624028	-0.420973	0.960890	-0.240093	0.138006	0.195629	0.941223	0.275371	-0.196010	-0.237603	0.951381						
04946														2.258188	-10.479179	-0.499458	0.961245	-0.237534	0.139945	0.198265	0.948312	0.247781	-0.191568	-0.210432	0.958655						
04947														-0.296508	-9.688633	-0.328712	0.961437	-0.238911	0.136236	0.205704	0.953477	0.220381	-0.182549	-0.183858	0.965853						
04948														-2.582684	-8.719987	0.308449	0.963645	-0.232918	0.130912	0.205431	0.959175	0.194377	-0.170842	-0.160417	0.972152						
04949														-0.731255	-9.603616	0.527777	0.968396	-0.212884	0.129960	0.190124	0.967310	0.167820	-0.161438	-0.137808	0.977214						
04950														1.251577	-9.538296	0.016939	0.972463	-0.194274	0.128739	0.175801	0.974124	0.142046	-0.153004	-0.115502	0.981453						
04951														2.114109	-9.714175	-0.318846	0.975589	-0.179788	0.126106	0.165192	0.979173	0.118032	-0.144700	-0.094319	0.984970						
04952														1.909068	-9.709373	-0.562509	0.977413	-0.172341	0.122324	0.161175	0.982243	0.096029	-0.136702	-0.074144	0.987834						
04953														1.453623	-9.787896	-0.714154	0.978728	-0.168338	0.117280	0.160346	0.984238	0.074601	-0.127990	-0.054208	0.990293						
04954														0.373400	-9.832268	-0.796632	0.980123	-0.164966	0.110204	0.159715	0.985633	0.054949	-0.117686	-0.036255	0.992389						
04955														-0.883321	-9.622333	-0.732698	0.980625	-0.166531	0.103164	0.163787	0.985890	0.034580	-0.107467	-0.017013	0.994063						
04956														-0.463878	-9.656014	-0.368988	0.981387	-0.164594	0.098932	0.164258	0.986349	0.011593	-0.099490	0.004874	0.995027						
04957														0.351328	-9.659559	-0.698076	0.982348	-0.161278	0.094768	0.163090	0.986542	-0.011651	-0.091613	0.026901	0.995431						
04958														0.123572	-9.441603	-1.247337	0.984530	-0.152250	0.086724	0.155742	0.987178	-0.034993	-0.080284	0.047958	0.995618						
04959														-0.442744	-10.000617	-1.549836	0.987974	-0.134865	0.075623	0.139013	0.988895	-0.052559	-0.067694	0.062440	0.995750						
04960														-0.463070	-10.090680	-0.829622	0.990665	-0.119299	0.065965	0.123273	0.990566	-0.059857	-0.058202	0.067430	0.996025						
04961														-0.380998	-10.068105	-0.915558	0.991939	-0.111515	0.060176	0.115385	0.991178	-0.065205	-0.052374	0.071622	0.996056						
04962														-0.494455	-10.116208	0.277732	0.993858	-0.096774	0.053680	0.100430	0.992464	-0.070201	-0.046482	0.075161	0.996087						
04963														-0.295648	-9.550938	0.530355	0.995932	-0.078333	0.044547	0.081494	0.993906	-0.074227	-0.038461	0.077556	0.996246						
04964														0.054206	-9.679848	-0.922556	0.998072	-0.052890	0.032494	0.055207	0.995645	-0.075117	-0.028379	0.076766	0.996645						
04965														0.644492	-10.198823	-1.032725	0.999248	-0.032093	0.021763	0.033617	0.996713	-0.073703	-0.019326	0.074379	0.997043						
04966														1.740035	-10.694366	-0.136897	0.999738	-0.018167	0.013947	0.019094	0.997396	-0.069548	-0.012647	0.069796	0.997481						
04967														1.784246	-11.230840	0.225095	0.999941	-0.008370	0.006891	0.008785	0.997996	-0.062661	-0.006353	0.062718	0.998011						
04968														0.988363	-12.057120	0.119665	1.000000	0.000385	0.000101	-0.000380	0.998709	-0.050804	-0.000121	0.050804	0.998709						
04969														-0.297945	-12.597818	0.343267	0.999982	0.004936	-0.003497	-0.005037	0.999557	-0.029321	0.003351	0.029338	0.999564						
04970														-1.878208	-11.988083	1.513796	0.999994	0.000821	-0.003285	-0.000813	0.999997	0.002279	0.003287	-0.002277	0.999992						
04971														-3.314821	-11.782096	2.665385	0.999853	-0.017137	-0.000502	0.017141	0.998781	0.046279	-0.000292	-0.046281	0.998928						
04972														-3.906786	-10.687048	1.498062	0.998893	-0.046980	-0.002507	0.047002	0.994192	0.096812	-0.002056	-0.096822	0.995300						
04973														-4.276071	-12.675203	-1.349108	0.998951	-0.045406	-0.005965	0.045783	0.987057	0.153694	-0.001091	-0.153806	0.988100						
04974														-3.214433	-12.649003	-2.146239	0.998938	-0.046060	-0.001527	0.045389	0.977562	0.205698	-0.007982	-0.205549	0.978614						
04975														-3.742301	-12.618477	-4.529033	0.999435	-0.031322	0.012223	0.027240	0.967411	0.251742	-0.019709	-0.251267	0.967717						
04976														-1.951397	-10.773570	-3.376010	0.999174	-0.032382	0.024565	0.023659	0.954799	0.296310	-0.033050	-0.295484	0.954776						
04977														-1.474680	-10.304712	-0.449851	0.998327	-0.050702	0.027799	0.038235	0.939495	0.340421	-0.043377	-0.338789	0.939862						
04978														-1.898419	-9.660698	1.026574	0.996922	-0.075044	0.022711	0.060571	0.921067	0.384664	-0.049785	-0.382105	0.922777						
04979														-2.589617	-8.629436	0.547414	0.995245	-0.096111	0.015823	0.080462	0.902761	0.422550	-0.054896	-0.419268	0.906202						
04980														-2.457715	-7.449900	-0.041646	0.993752	-0.110899	0.012613	0.093235	0.886924	0.452408	-0.061359	-0.448405	0.891722						
04981														-1.211226	-6.663768	-0.347484	0.991209	-0.131892	0.010448	0.111366	0.874367	0.472314	-0.071430	-0.466998	0.881369						
04982														-1.776290	-6.144044	-0.112893	0.986495	-0.163762	0.003184	0.141693	0.862979	0.484965	-0.082166	-0.477964	0.874528						
04983														-2.034592	-5.046854	1.516107	0.984675	-0.174353	0.004149	0.149355	0.855304	0.496132	-0.090051	-0.487909	0.868237						
04984														-0.508190	-4.903376	2.704758	0.984957	-0.172369	0.012233	0.143095	0.853270	0.501453	-0.096873	-0.492158	0.865099						
04985														0.730689	-5.848015	2.660610	0.984516	-0.174276	0.018869	0.141907	0.855561	0.497873	-0.102911	-0.487486	0.867045						
04986														0.596173	-7.437135	2.371073	0.982241	-0.186410	0.021316	0.152700	0.860242	0.486484	-0.109023	-0.474590	0.873429						
04987														-1.200686	-8.314671	3.238074	0.979837	-0.198365	0.023894	0.163644	0.865386	0.473633	-0.114630	-0.460173	0.880398						
04988														-2.331848	-8.295200	4.364890	0.978266	-0.205338	0.028830	0.169332	0.871378	0.460463	-0.119672	-0.445574	0.887211						
04989														-2.803850	-8.396292	4.319882	0.977444	-0.208361	0.034493	0.171503	0.878392	0.446111	-0.123250	-0.430132	0.894313						
04990														-3.276910	-8.092051	3.404093	0.978018	-0.204658	0.039945	0.168494	0.888504	0.426815	-0.122842	-0.410702	0.903457						
04991														-3.559905	-8.125254	2.886056	0.980095	-0.192414	0.048895	0.156851	0.901465	0.403433	-0.121703	-0.387734	0.913702						
04992														-2.091867	-10.696201	4.397088	0.981795	-0.177875	0.066621	0.140373	0.915770	0.376380	-0.127958	-0.360176	0.924067						
04993														3.159952	-19.407858	9.626088	0.975660	-0.201348	0.086868	0.155469	0.914499	0.373525	-0.154649	-0.350928	0.923544						
04994														-2.220085	-10.888731	1.359706	0.960929	-0.265160	0.079410	0.218447	0.902675	0.370756	-0.169991	-0.338923	0.925329						
04995														-5.088961	-3.668532	-0.731016	0.964922	-0.250055	0.079987	0.204818	0.907593	0.366503	-0.164242	-0.337264	0.926972						
04996														-2.878443	-6.375822	-4.683228	0.969587	-0.229355	0.085420	0.188210	0.921834	0.338819	-0.156453	-0.312438	0.936966						
04997														-0.339119	-12.110688	-2.946251	0.977070	-0.179090	0.115159	0.136614	0.942152	0.306082	-0.163313	-0.283331	0.945014						
04998														3.983514	-13.217765	-0.468867	0.976745	-0.173219	0.126347	0.132737	0.951333	0.278111	-0.168373	-0.254873	0.952203						
04999														2.220013	-10.461934	-0.947867	0.976533	-0.168860	0.133674	0.130988	0.958368	0.253718	-0.170952	-0.230254	0.957997						
05000														0.390713	-9.335975	-0.609421	0.975944	-0.171973	0.134012	0.138219	0.963394	0.229712	-0.168611	-0.205663	0.963988						
