// General information: 
//  MT Manager version: 2022.2.0 
//  XDA version: 2022.2.0 build 7381 rev 124627 built on 2023-07-19
// Device information: 
//  DeviceId: 00B4D4A6
//  ProductCode: MTW2-3A7G6
//  Firmware Version: 4.6.0
//  Hardware Version: 2.0.0
// Device settings: 
//  Filter Profile: human(46.1)
//  Option Flags: Orientation Smoother Disabled, Position/Velocity Smoother Disabled, Continuous Zero Rotation Update Disabled, AHS Disabled, ICC Disabled
// Coordinate system: ENU
PacketCounter	SampleTimeFine	Year	Month	Day	Second	UTC_Nano	UTC_Year	UTC_Month	UTC_Day	UTC_Hour	UTC_Minute	UTC_Second	UTC_Valid	Acc_X	Acc_Y	Acc_Z	Mat[1][1]	Mat[2][1]	Mat[3][1]	Mat[1][2]	Mat[2][2]	Mat[3][2]	Mat[1][3]	Mat[2][3]	Mat[3][3]	Latitude	Longitude	Altitude	Vel_E	Vel_N	Vel_U
04221														-2.822580	-9.149219	-0.504216	0.998763	-0.044583	0.022040	0.044871	0.998911	-0.012751	-0.021447	0.013724	0.999676						
04222														-5.232873	-9.325560	-0.300938	0.998302	-0.053284	0.023518	0.053570	0.998496	-0.011671	-0.022861	0.012911	0.999655						
04223														-3.908395	-9.189305	-0.370561	0.998633	-0.046108	0.024611	0.046269	0.998911	-0.006000	-0.024307	0.007131	0.999679						
04224														-2.461407	-9.020408	-0.678146	0.998573	-0.046643	0.025997	0.046775	0.998895	-0.004494	-0.025759	0.005703	0.999652						
04225														-3.418103	-9.119405	-0.610561	0.998066	-0.055875	0.027262	0.056060	0.998409	-0.006062	-0.026880	0.007578	0.999610						
04226														-3.881162	-9.294480	-0.497258	0.997983	-0.056829	0.028307	0.056982	0.998364	-0.004636	-0.027997	0.006239	0.999589						
04227														-2.135763	-9.244894	-0.593640	0.997716	-0.060124	0.030796	0.060293	0.998170	-0.004574	-0.030465	0.006421	0.999515						
04228														-2.270958	-9.286583	-0.417804	0.996501	-0.076167	0.034416	0.076509	0.997030	-0.008748	-0.033647	0.011351	0.999369						
04229														-2.786142	-9.358386	-0.392846	0.994294	-0.099153	0.039342	0.099764	0.994914	-0.013890	-0.037765	0.017736	0.999129						
04230														-4.450732	-9.553225	0.014927	0.992324	-0.115665	0.043756	0.116441	0.993075	-0.015607	-0.041648	0.020582	0.998920						
04231														-3.502243	-9.412690	-0.012361	0.991551	-0.120386	0.048320	0.121157	0.992543	-0.013359	-0.046351	0.019101	0.998743						
04232														-1.933695	-9.076461	0.034876	0.989172	-0.136716	0.053354	0.137673	0.990369	-0.014687	-0.050832	0.021874	0.998468						
04233														-4.571604	-8.976566	-0.195670	0.984950	-0.163719	0.055407	0.165050	0.986076	-0.020319	-0.051309	0.029158	0.998257						
04234														-5.830456	-9.283854	-0.395939	0.984536	-0.166201	0.055369	0.167429	0.985715	-0.018288	-0.051538	0.027275	0.998298						
04235														-2.565619	-9.400283	-0.694256	0.985368	-0.161137	0.055533	0.162017	0.986719	-0.011690	-0.052911	0.020516	0.998388						
04236														-2.294120	-9.440281	-0.892925	0.982888	-0.175727	0.055234	0.176557	0.984235	-0.010482	-0.052521	0.020055	0.998418						
04237														-4.620997	-9.270978	-0.408487	0.981227	-0.185251	0.053620	0.185905	0.982540	-0.007433	-0.051306	0.017262	0.998534						
04238														-3.275731	-9.176490	-0.415732	0.982219	-0.180328	0.052237	0.180635	0.983549	-0.001188	-0.051163	0.010602	0.998634						
04239														-2.407545	-9.469797	-0.569097	0.981779	-0.182703	0.052239	0.182882	0.983134	0.001378	-0.051609	0.008200	0.998634						
04240														-3.918444	-9.585826	-0.521177	0.981940	-0.181704	0.052702	0.181586	0.983350	0.007072	-0.053109	0.002625	0.998585						
04241														-2.354092	-9.341624	-0.731174	0.982769	-0.176834	0.053800	0.176166	0.984214	0.016955	-0.055949	-0.007185	0.998408						
04242														-2.333139	-9.406934	-0.313372	0.982147	-0.179793	0.055336	0.178648	0.983595	0.025035	-0.058929	-0.014703	0.998154						
04243														-3.187335	-9.409115	-0.069255	0.981377	-0.183569	0.056579	0.181957	0.982770	0.032484	-0.061568	-0.021584	0.997870						
04244														-3.018473	-9.116448	0.088748	0.981923	-0.180059	0.058363	0.177853	0.983200	0.041058	-0.064775	-0.029936	0.997451						
04245														-2.055862	-9.299843	-0.058521	0.981318	-0.182410	0.061170	0.179788	0.982630	0.045980	-0.068495	-0.034124	0.997068						
04246														-2.931508	-9.473232	-0.371573	0.979270	-0.192214	0.063902	0.189452	0.980772	0.046847	-0.071678	-0.033770	0.996856						
04247														-3.763843	-9.203580	-0.019728	0.979555	-0.189434	0.067725	0.186256	0.981199	0.050564	-0.076030	-0.036916	0.996422						
04248														-1.862128	-8.842624	-0.002325	0.978875	-0.190876	0.073288	0.187481	0.980956	0.050759	-0.081581	-0.035947	0.996018						
04249														-3.095677	-8.925357	0.376286	0.976046	-0.203338	0.077386	0.200357	0.978707	0.044597	-0.084807	-0.028024	0.996003						
04250														-3.927061	-9.105567	0.694177	0.976306	-0.200568	0.081237	0.197849	0.979403	0.040323	-0.087652	-0.023295	0.995879						
04251														-1.968836	-9.110229	0.312876	0.976344	-0.198577	0.085558	0.196315	0.979945	0.034166	-0.090627	-0.016561	0.995747						
04252														-2.450182	-9.387959	0.189697	0.973410	-0.210717	0.089843	0.209443	0.977539	0.023492	-0.092775	-0.004051	0.995679						
04253														-4.571358	-9.488350	0.359374	0.972068	-0.215644	0.092640	0.215098	0.976462	0.015959	-0.093901	0.004414	0.995572						
04254														-3.251863	-9.177719	0.554166	0.974380	-0.203869	0.094982	0.203507	0.978979	0.013578	-0.095753	0.006100	0.995386						
04255														-1.905614	-9.169674	0.496120	0.973935	-0.205074	0.096931	0.205299	0.978669	0.007759	-0.096454	0.012343	0.995261						
04256														-3.343336	-9.612664	0.403048	0.972244	-0.212369	0.098191	0.213310	0.976984	0.000935	-0.096129	0.020036	0.995167						
04257														-3.748786	-9.675583	0.091222	0.971586	-0.215102	0.098752	0.216374	0.976308	-0.002234	-0.095932	0.023538	0.995110						
04258														-3.270880	-9.451914	-0.040795	0.972255	-0.212306	0.098219	0.213537	0.976933	-0.002079	-0.095512	0.022995	0.995163						
04259														-3.107618	-9.360843	0.179683	0.973516	-0.207073	0.096893	0.208071	0.978114	-0.000207	-0.094729	0.020362	0.995295						
04260														-2.281859	-9.321614	0.045063	0.973197	-0.209043	0.095860	0.210036	0.977694	-0.000278	-0.093664	0.020404	0.995395						
04261														-3.148360	-9.413223	0.018314	0.972364	-0.213546	0.094370	0.214591	0.976703	-0.000952	-0.091969	0.021176	0.995537						
04262														-2.690909	-9.320588	-0.140071	0.972133	-0.215003	0.093438	0.216106	0.976368	-0.001737	-0.090856	0.021881	0.995624						
04263														-3.308686	-9.576620	0.091031	0.972388	-0.214299	0.092402	0.215430	0.976517	-0.002324	-0.089734	0.022166	0.995719						
04264														-3.223795	-9.510028	-0.202771	0.973365	-0.210020	0.091931	0.210834	0.977521	0.000876	-0.090048	0.018530	0.995765						
04265														-3.263189	-9.754006	-0.189262	0.974901	-0.203821	0.089587	0.203946	0.978951	0.007849	-0.089301	0.010619	0.995948						
04266														-1.791038	-9.902189	-0.670134	0.975005	-0.203974	0.088091	0.203394	0.978973	0.015598	-0.089420	0.002710	0.995990						
04267														-2.720079	-9.612587	-0.140347	0.972516	-0.215893	0.087194	0.214817	0.976414	0.021644	-0.089810	-0.002318	0.995956						
04268														-3.650581	-9.053924	0.468020	0.971531	-0.220655	0.086252	0.218958	0.975310	0.028780	-0.090473	-0.009075	0.995858						
04269														-2.265013	-8.821746	0.323486	0.972515	-0.216812	0.084895	0.214541	0.976083	0.035121	-0.090479	-0.015942	0.995771						
04270														-2.101831	-8.986446	-0.163732	0.971841	-0.220337	0.083523	0.218079	0.975290	0.035366	-0.089252	-0.016156	0.995878						
04271														-2.508596	-9.346087	-0.443967	0.970596	-0.225920	0.083083	0.223910	0.974055	0.032894	-0.088359	-0.013324	0.996000						
04272														-3.272198	-9.502089	-0.331148	0.969530	-0.230422	0.083175	0.228666	0.973037	0.030192	-0.087889	-0.010253	0.996077						
04273														-2.768453	-9.440142	-0.364203	0.970066	-0.227863	0.083966	0.226174	0.973648	0.029236	-0.088415	-0.009370	0.996040						
04274														-2.330681	-9.345050	-0.274146	0.969505	-0.229733	0.085344	0.228384	0.973240	0.025388	-0.088892	-0.005123	0.996028						
04275														-3.634835	-9.407203	0.061215	0.969244	-0.230477	0.086291	0.229477	0.973077	0.021467	-0.088916	-0.001005	0.996039						
04276														-3.609979	-9.274488	0.318485	0.971759	-0.219839	0.085759	0.218831	0.975535	0.021099	-0.088299	-0.001737	0.996093						
04277														-1.973050	-9.352064	-0.334646	0.972993	-0.214372	0.085615	0.213550	0.976752	0.018752	-0.087644	0.000038	0.996152						
04278														-2.603512	-9.369833	-0.506390	0.971373	-0.221369	0.086196	0.221066	0.975170	0.013167	-0.086970	0.006265	0.996191						
04279														-3.896444	-9.550161	-0.036006	0.969831	-0.227833	0.086722	0.227981	0.973630	0.008317	-0.086330	0.011705	0.996198						
04280														-3.218010	-9.495336	0.076222	0.971400	-0.221128	0.086515	0.221289	0.975177	0.007848	-0.086103	0.011522	0.996220						
04281														-2.073866	-9.237240	-0.000429	0.971513	-0.220769	0.086162	0.221146	0.975227	0.005265	-0.085190	0.013939	0.996267						
04282														-3.379647	-9.412942	0.028142	0.971405	-0.221610	0.085214	0.222136	0.975010	0.003378	-0.083833	0.015648	0.996357						
04283														-3.036265	-9.573704	-0.213316	0.972131	-0.218758	0.084304	0.219204	0.975671	0.004046	-0.083138	0.014546	0.996432						
04284														-2.889754	-9.395161	-0.119571	0.973099	-0.214756	0.083410	0.215026	0.976591	0.005840	-0.082711	0.012253	0.996498						
04285														-2.465067	-9.373431	-0.035639	0.973142	-0.214710	0.083034	0.214873	0.976616	0.007076	-0.082612	0.010955	0.996522						
04286														-2.737955	-9.428327	0.050958	0.972497	-0.217711	0.082778	0.217846	0.975954	0.007500	-0.082421	0.010739	0.996540						
04287														-3.307796	-9.319076	0.186135	0.972540	-0.217628	0.082484	0.217668	0.975985	0.008609	-0.082377	0.009582	0.996555						
04288														-2.620630	-9.186413	-0.099010	0.973183	-0.214712	0.082546	0.214674	0.976640	0.009448	-0.082646	0.008526	0.996542						
04289														-2.693536	-9.290757	-0.076281	0.972780	-0.216352	0.083011	0.216428	0.976264	0.008194	-0.082813	0.009995	0.996515						
04290														-2.924670	-9.266272	-0.104825	0.971977	-0.219691	0.083649	0.219937	0.975493	0.006366	-0.082998	0.012210	0.996475						
04291														-3.010935	-9.313374	-0.199675	0.970845	-0.224304	0.084541	0.224800	0.974398	0.003735	-0.083214	0.015378	0.996413						
04292														-3.039183	-9.431760	-0.257147	0.969900	-0.228064	0.085324	0.228794	0.973474	0.001253	-0.083346	0.018306	0.996352						
04293														-3.183014	-9.411916	-0.133820	0.969774	-0.228593	0.085341	0.229481	0.973313	-0.000613	-0.082924	0.020179	0.996352						
04294														-2.955627	-9.350937	-0.269673	0.969618	-0.229274	0.085290	0.230318	0.973112	-0.002480	-0.082428	0.022048	0.996353						
04295														-2.652568	-9.391767	-0.408311	0.968806	-0.232676	0.085308	0.233951	0.972235	-0.005124	-0.081748	0.024922	0.996341						
04296														-3.227145	-9.441203	-0.426625	0.967552	-0.237884	0.085175	0.239432	0.970878	-0.008297	-0.080721	0.028421	0.996331						
04297														-3.096493	-9.380186	-0.453662	0.967310	-0.238913	0.085044	0.240580	0.970580	-0.009770	-0.080208	0.029910	0.996329						
04298														-2.915565	-9.234190	-0.179875	0.967138	-0.239707	0.084758	0.241482	0.970341	-0.011198	-0.079560	0.031297	0.996339						
04299														-2.886454	-9.315346	-0.102562	0.966989	-0.240530	0.084132	0.242433	0.970080	-0.013038	-0.078479	0.033004	0.996369						
04300														-2.781749	-9.353920	-0.205093	0.966434	-0.242895	0.083713	0.244928	0.969429	-0.014783	-0.077563	0.034790	0.996380						
04301														-2.914678	-9.452977	-0.438423	0.966109	-0.244221	0.083598	0.246362	0.969043	-0.016172	-0.077061	0.036219	0.996368						
04302														-2.810190	-9.504267	-0.409240	0.965838	-0.245119	0.084107	0.247319	0.968791	-0.016655	-0.077400	0.036888	0.996318						
04303														-2.667112	-9.423551	-0.412546	0.965133	-0.247514	0.085177	0.249815	0.968139	-0.017332	-0.078173	0.038006	0.996215						
04304														-2.924096	-9.425947	-0.329822	0.964076	-0.251236	0.086246	0.253670	0.967117	-0.018346	-0.078801	0.039565	0.996105						
04305														-2.984133	-9.365296	-0.419436	0.963173	-0.254410	0.087030	0.256941	0.966240	-0.019044	-0.079247	0.040704	0.996024						
04306														-3.017495	-9.436901	-0.524434	0.962108	-0.258232	0.087541	0.260839	0.965184	-0.019579	-0.079437	0.041671	0.995968						
04307														-3.349471	-9.302852	-0.566407	0.961638	-0.260139	0.087064	0.262662	0.964707	-0.018704	-0.079125	0.040854	0.996027						
04308														-3.046622	-9.295358	-0.343210	0.962418	-0.257445	0.086446	0.259804	0.965511	-0.017055	-0.079074	0.038873	0.996111						
04309														-2.612009	-9.262026	-0.305658	0.962101	-0.258577	0.086595	0.260991	0.965180	-0.017622	-0.079023	0.039554	0.996088						
04310														-2.954890	-9.292734	-0.208008	0.961430	-0.261067	0.086577	0.263656	0.964414	-0.019755	-0.078338	0.041819	0.996049						
04311														-3.022593	-9.419382	-0.408440	0.961355	-0.261419	0.086346	0.264148	0.964239	-0.021651	-0.077598	0.043622	0.996030						
04312														-2.812093	-9.388461	-0.601750	0.961030	-0.262667	0.086180	0.265511	0.963829	-0.023186	-0.076972	0.045164	0.996010						
04313														-2.974211	-9.324616	-0.550716	0.960679	-0.263991	0.086054	0.266951	0.963393	-0.024725	-0.076377	0.046725	0.995984						
04314														-2.927659	-9.438597	-0.383175	0.960516	-0.264632	0.085905	0.267670	0.963165	-0.025807	-0.075911	0.047783	0.995969						
04315														-2.846724	-9.377508	-0.395475	0.960685	-0.264189	0.085373	0.267258	0.963258	-0.026576	-0.075216	0.048348	0.995995						
04316														-2.833005	-9.463153	-0.442819	0.960780	-0.263988	0.084925	0.267101	0.963277	-0.027463	-0.074557	0.049070	0.996009						
04317														-2.791981	-9.425157	-0.529809	0.960497	-0.265141	0.084537	0.268287	0.962929	-0.028113	-0.073949	0.049683	0.996024						
04318														-2.991495	-9.339308	-0.411484	0.960079	-0.266741	0.084244	0.269918	0.962456	-0.028681	-0.073430	0.050275	0.996032						
04319														-3.052887	-9.413413	-0.249490	0.960635	-0.264817	0.083973	0.267936	0.963026	-0.028134	-0.073418	0.049526	0.996071						
04320														-2.313406	-9.402239	-0.429203	0.960414	-0.265615	0.083985	0.268730	0.962807	-0.028045	-0.073412	0.049504	0.996072						
04321														-2.939604	-9.368204	-0.439713	0.959314	-0.269521	0.084119	0.272693	0.961676	-0.028609	-0.073184	0.050383	0.996045						
04322														-2.865269	-9.403746	-0.423776	0.958752	-0.271412	0.084439	0.274540	0.961176	-0.027723	-0.073637	0.049761	0.996043						
04323														-2.971778	-9.517997	-0.231296	0.958977	-0.270714	0.084125	0.273645	0.961498	-0.025293	-0.074039	0.047276	0.996134						
04324														-2.374008	-9.412233	-0.491185	0.958894	-0.271041	0.084021	0.273766	0.961531	-0.022589	-0.074666	0.044663	0.996208						
04325														-2.580580	-9.484839	-0.434436	0.957493	-0.275851	0.084338	0.278398	0.960260	-0.019864	-0.075507	0.042499	0.996239						
04326														-2.710000	-9.697769	-0.608069	0.955893	-0.281175	0.084906	0.283405	0.958880	-0.015209	-0.077139	0.038601	0.996273						
04327														-2.305906	-9.606167	-0.685645	0.953880	-0.287640	0.085882	0.289475	0.957139	-0.009462	-0.079479	0.033887	0.996260						
04328														-2.129236	-9.570385	-0.667523	0.950758	-0.297303	0.087575	0.298760	0.954321	-0.003723	-0.082468	0.029704	0.996151						
04329														-1.994341	-9.509579	-0.844207	0.946270	-0.310601	0.089999	0.311800	0.950147	0.000771	-0.085751	0.027332	0.995942						
04330														-3.225207	-9.539455	-0.698631	0.942846	-0.320487	0.091269	0.321419	0.946926	0.004696	-0.087930	0.024908	0.995815						
04331														-2.593068	-9.345465	-0.763203	0.943999	-0.316755	0.092369	0.317200	0.948304	0.010212	-0.090829	0.019660	0.995672						
04332														-1.618551	-9.308862	-0.765026	0.944577	-0.314688	0.093519	0.314963	0.949026	0.012189	-0.092587	0.017942	0.995543						
04333														-2.381100	-9.376523	-0.718527	0.943124	-0.318739	0.094458	0.319269	0.947613	0.009854	-0.092651	0.020864	0.995480						
04334														-3.491016	-9.240705	-0.522618	0.944570	-0.314310	0.094851	0.315073	0.949040	0.007216	-0.092286	0.023069	0.995465						
04335														-2.395861	-9.025745	-0.326334	0.947467	-0.305106	0.095999	0.306185	0.951965	0.003642	-0.092499	0.025943	0.995375						
04336														-2.771161	-9.147250	0.032258	0.948967	-0.300150	0.096809	0.301864	0.953346	-0.003225	-0.091325	0.032284	0.995298						
04337														-3.616962	-9.492434	-0.114550	0.952385	-0.289328	0.096184	0.291523	0.956519	-0.009291	-0.089314	0.036889	0.995320						
04338														-3.038653	-10.259298	-0.552081	0.955392	-0.279678	0.094900	0.282139	0.959281	-0.013321	-0.087310	0.039502	0.995398						
04339														-3.496779	-10.182704	-0.532315	0.956005	-0.277746	0.094400	0.280570	0.959668	-0.017817	-0.085644	0.043519	0.995375						
04340														-3.214567	-9.794187	-0.485535	0.955178	-0.280426	0.094847	0.283638	0.958679	-0.021999	-0.084759	0.047915	0.995249						
04341														-2.777344	-9.170789	-0.518806	0.952498	-0.289263	0.095258	0.292873	0.955795	-0.026086	-0.083501	0.052746	0.995111						
04342														-2.647496	-8.986997	-0.399165	0.950921	-0.294845	0.093890	0.298631	0.953931	-0.028900	-0.081043	0.055520	0.995163						
04343														-2.170680	-9.155534	-0.687222	0.950322	-0.297592	0.091256	0.301374	0.953014	-0.030611	-0.077858	0.056593	0.995357						
04344														-2.053722	-9.189910	-1.264181	0.949430	-0.301078	0.089074	0.304858	0.951857	-0.032088	-0.075125	0.057620	0.995508						
04345														-2.196009	-9.184455	-1.522061	0.948073	-0.305427	0.088725	0.309303	0.950373	-0.033498	-0.074090	0.059202	0.995493						
04346														-2.154181	-9.490596	-1.731218	0.947582	-0.306638	0.089780	0.310712	0.949850	-0.035252	-0.074468	0.061300	0.995338						
04347														-1.356181	-9.578822	-2.152437	0.946292	-0.309677	0.092907	0.314396	0.948405	-0.041020	-0.075410	0.068027	0.994829						
04348														-2.089385	-9.660632	-2.413374	0.944453	-0.314095	0.096714	0.319873	0.946079	-0.051137	-0.075437	0.079232	0.993998						
04349														-2.784729	-9.583070	-2.467752	0.946493	-0.306917	0.099767	0.313758	0.947487	-0.061838	-0.075549	0.089832	0.993087						
04350														-2.193757	-9.772637	-3.011999	0.951232	-0.291194	0.101800	0.299212	0.951242	-0.074900	-0.075026	0.101707	0.991981						
04351														-1.560079	-9.769260	-3.244536	0.954065	-0.280837	0.104359	0.290558	0.952255	-0.093738	-0.073051	0.119754	0.990112						
04352														-2.076559	-9.582014	-2.992178	0.955171	-0.275455	0.108500	0.287543	0.950407	-0.118515	-0.070473	0.144401	0.987007						
04353														-2.681712	-9.350195	-2.671196	0.956376	-0.269155	0.113576	0.284106	0.947450	-0.147047	-0.068029	0.172900	0.982587						
04354														-2.642935	-9.128854	-2.533210	0.960075	-0.254212	0.116762	0.271933	0.946031	-0.176291	-0.065645	0.201004	0.977388						
04355														-1.844358	-8.930319	-2.753279	0.963096	-0.240785	0.120287	0.261589	0.942583	-0.207628	-0.063387	0.231431	0.970784						
04356														-2.521141	-8.556804	-2.558210	0.964101	-0.233916	0.125672	0.258420	0.935366	-0.241474	-0.061065	0.265281	0.962235						
04357														-3.552991	-8.648478	-2.268501	0.964729	-0.228386	0.130910	0.256670	0.926527	-0.275079	-0.058468	0.298978	0.952467						
04358														-3.942420	-9.241753	-1.587539	0.966591	-0.218452	0.134092	0.250080	0.918472	-0.306382	-0.056230	0.329680	0.942417						
04359														-3.835470	-9.750077	-1.084661	0.968404	-0.208820	0.136335	0.243531	0.909602	-0.336626	-0.053716	0.359192	0.931716						
04360														-4.198263	-10.080916	-0.815527	0.968899	-0.204774	0.138932	0.242372	0.898524	-0.365937	-0.049899	0.388229	0.920211						
04361														-4.954402	-10.483345	-0.720093	0.968771	-0.203695	0.141389	0.243688	0.887494	-0.391116	-0.045814	0.413356	0.909416						
04362														-5.539396	-9.959879	-0.647144	0.969706	-0.200319	0.139794	0.240797	0.880112	-0.409169	-0.041070	0.430436	0.901686						
04363														-5.228632	-8.872624	-0.765509	0.972066	-0.193025	0.133529	0.231893	0.877705	-0.419357	-0.036253	0.438606	0.897948						
04364														-4.165182	-8.070171	-0.737699	0.973442	-0.189967	0.127760	0.226729	0.877227	-0.423163	-0.031688	0.440892	0.897001						
04365														-3.982056	-7.890286	-0.657653	0.972653	-0.196246	0.124228	0.230755	0.877318	-0.420792	-0.026409	0.437951	0.898611						
04366														-4.395119	-8.131368	-0.987412	0.971621	-0.204126	0.119519	0.235537	0.881445	-0.409362	-0.021788	0.425896	0.904510						
04367														-3.912134	-8.546150	-1.384276	0.970679	-0.211143	0.114896	0.239520	0.889970	-0.388052	-0.020320	0.404193	0.914448						
04368														-3.147564	-9.198101	-2.003144	0.967021	-0.225923	0.117597	0.253442	0.899315	-0.356371	-0.025245	0.374422	0.926915						
04369														-4.141905	-8.758012	-1.444681	0.960912	-0.246981	0.125091	0.274493	0.908792	-0.314245	-0.036069	0.336298	0.941065						
04370														-4.090111	-8.419791	-0.500785	0.955591	-0.264068	0.130817	0.290317	0.919789	-0.264014	-0.050607	0.290268	0.955606						
04371														-2.854896	-8.342587	0.143031	0.947679	-0.288226	0.137226	0.312330	0.926031	-0.211935	-0.065990	0.243706	0.967602						
04372														-2.476422	-9.297369	1.331897	0.932906	-0.329589	0.145113	0.351096	0.922062	-0.162892	-0.080116	0.202912	0.975914						
04373														-2.928655	-9.922312	1.887331	0.911628	-0.381610	0.152670	0.399990	0.909159	-0.115922	-0.094564	0.166744	0.981455						
04374														-3.131359	-9.810947	1.912687	0.887036	-0.433958	0.157629	0.448368	0.891114	-0.069863	-0.110147	0.132647	0.985024						
04375														-2.829195	-10.290123	2.161000	0.860089	-0.484474	0.159786	0.493862	0.869242	-0.022783	-0.127855	0.098507	0.986889						
04376														-2.160436	-10.853514	2.580745	0.829962	-0.535634	0.155752	0.539650	0.841678	0.018890	-0.141211	0.068374	0.987616						
04377														-1.268701	-12.629060	2.240635	0.792823	-0.592091	0.144428	0.591201	0.804734	0.053715	-0.148030	0.042800	0.988056						
04378														-1.933235	-12.910722	1.168730	0.746057	-0.654120	0.124604	0.647838	0.756286	0.091317	-0.153968	0.012595	0.987996						
04379														-3.713076	-12.124589	1.038080	0.705347	-0.702375	0.095686	0.689253	0.711088	0.138867	-0.165578	-0.031998	0.985678						
04380														-3.735502	-11.733419	1.620322	0.680815	-0.729956	0.060449	0.709171	0.677567	0.194883	-0.183214	-0.089811	0.978962						
04381														-2.268970	-12.244508	2.058026	0.659962	-0.751049	0.019402	0.723366	0.642189	0.253642	-0.202957	-0.153359	0.967104						
04382														-2.481331	-12.983384	2.622193	0.635543	-0.771447	-0.030890	0.739278	0.596531	0.312442	-0.222606	-0.221406	0.949435						
04383														-3.775536	-13.258514	2.663556	0.620871	-0.779119	-0.086559	0.745325	0.552483	0.373167	-0.242919	-0.296203	0.923718						
04384														-3.582149	-12.452821	2.201768	0.619058	-0.772212	-0.143023	0.739521	0.511890	0.437125	-0.264341	-0.376374	0.887956						
04385														-2.674302	-11.609026	2.568538	0.625341	-0.755142	-0.196747	0.725883	0.470357	0.501855	-0.286430	-0.456646	0.842278						
04386														-2.569083	-10.219923	3.504995	0.626345	-0.738381	-0.249970	0.716114	0.418296	0.558757	-0.308014	-0.528982	0.790762						
04387														-3.401816	-8.402123	4.600330	0.629288	-0.716129	-0.301922	0.704546	0.361692	0.610568	-0.328042	-0.596941	0.732154						
04388														-3.450233	-6.403954	4.587183	0.639549	-0.686109	-0.346745	0.687699	0.309028	0.656941	-0.343579	-0.658602	0.669475						
04389														-1.796013	-4.852752	4.404498	0.649999	-0.654035	-0.386962	0.672489	0.257897	0.693720	-0.353921	-0.711145	0.607464						
04390														-0.835654	-3.520333	4.652225	0.648764	-0.626947	-0.431328	0.671998	0.206005	0.711323	-0.357106	-0.751332	0.554955						
04391														-2.423472	-3.314420	5.087364	0.639145	-0.603439	-0.476818	0.682254	0.158693	0.713685	-0.354997	-0.781459	0.513127						
04392														-4.371887	-3.067582	5.487294	0.636409	-0.578541	-0.510171	0.686334	0.122862	0.716834	-0.352037	-0.806347	0.475262						
04393														-3.695160	-2.908441	4.792753	0.645911	-0.555618	-0.523535	0.678655	0.103848	0.727078	-0.349610	-0.824927	0.444149						
04394														-1.919759	-2.984635	4.475090	0.654505	-0.538845	-0.530349	0.672583	0.094566	0.733955	-0.345335	-0.837080	0.424312						
04395														-2.321768	-2.947341	4.607137	0.655824	-0.529835	-0.537745	0.676532	0.096433	0.730072	-0.334961	-0.842601	0.421693						
04396														-3.891400	-3.607402	4.553180	0.655753	-0.527086	-0.540526	0.683579	0.110605	0.721447	-0.320480	-0.842583	0.432835						
04397														-5.156235	-4.373656	5.589545	0.656880	-0.530000	-0.536291	0.689204	0.133600	0.712144	-0.305788	-0.837407	0.453037						
04398														-5.918873	-5.286389	7.021037	0.660480	-0.541072	-0.520584	0.692708	0.171598	0.700507	-0.289693	-0.823283	0.488142						
04399														-6.038622	-6.103008	6.105289	0.667603	-0.559668	-0.490997	0.692515	0.224652	0.685532	-0.273367	-0.797686	0.537557						
04400														-5.399263	-6.333846	4.035114	0.673926	-0.583205	-0.453537	0.691972	0.283198	0.664058	-0.258841	-0.761361	0.594417						
04401														-4.903412	-6.278354	2.730634	0.674234	-0.612094	-0.413218	0.695946	0.339377	0.632837	-0.247118	-0.714258	0.654804						
04402														-4.853005	-7.089944	2.828387	0.665241	-0.646416	-0.373633	0.708566	0.388848	0.588838	-0.235348	-0.656463	0.716706						
04403														-4.810622	-8.171896	3.085828	0.653777	-0.680487	-0.330928	0.723848	0.434981	0.535571	-0.220501	-0.589685	0.776949						
04404														-4.991134	-9.795353	3.110207	0.647164	-0.707769	-0.283272	0.735066	0.480802	0.478025	-0.202133	-0.517583	0.831414						
04405														-5.307016	-10.669431	3.608200	0.649339	-0.725154	-0.229151	0.738106	0.528347	0.419582	-0.183190	-0.441589	0.878317						
04406														-5.229086	-10.507090	3.530413	0.659413	-0.732407	-0.169572	0.733725	0.577854	0.357395	-0.163771	-0.360090	0.918430						
04407														-5.142256	-10.777272	2.629440	0.675767	-0.729227	-0.107551	0.723033	0.627379	0.289170	-0.143396	-0.273175	0.951217						
04408														-5.109077	-11.209743	1.600416	0.696316	-0.716294	-0.045470	0.706869	0.673414	0.216450	-0.124422	-0.182859	0.975234						
04409														-5.147513	-11.475646	0.654940	0.718214	-0.695661	0.015011	0.687231	0.712561	0.141318	-0.109005	-0.091180	0.989850						
04410														-4.747456	-11.740094	-0.004190	0.741306	-0.667454	0.070504	0.664101	0.744646	0.066876	-0.097137	-0.002754	0.995267						
04411														-4.316524	-11.543901	-0.393894	0.763332	-0.635298	0.117135	0.640243	0.768148	-0.006103	-0.086100	0.079653	0.993097						
04412														-4.225114	-11.252192	-0.440464	0.781363	-0.604123	0.156548	0.619468	0.781224	-0.077126	-0.075705	0.157240	0.984654						
04413														-4.374587	-11.060388	-0.038690	0.797692	-0.572247	0.190318	0.599063	0.788202	-0.140930	-0.069363	0.226431	0.971554						
04414														-4.038008	-10.612769	0.948637	0.811944	-0.540546	0.220355	0.580018	0.789617	-0.200212	-0.065772	0.290371	0.954651						
04415														-3.560957	-9.975896	-0.164765	0.821792	-0.513285	0.247381	0.566418	0.783073	-0.256842	-0.061884	0.351192	0.934256						
04416														-5.430799	-8.924884	-0.127033	0.823097	-0.497421	0.274013	0.565056	0.765571	-0.307593	-0.056774	0.408011	0.911210						
04417														-6.699956	-8.341871	0.415329	0.830203	-0.474342	0.292851	0.554615	0.755825	-0.348038	-0.056255	0.451361	0.890566						
04418														-5.164896	-7.934122	0.544506	0.842407	-0.445987	0.302400	0.535550	0.754912	-0.378542	-0.059460	0.480837	0.874792						
04419														-3.910512	-7.499149	0.243030	0.848089	-0.430114	0.309430	0.526524	0.749484	-0.401306	-0.059306	0.503266	0.862094						
04420														-4.305473	-7.429858	-0.028160	0.845459	-0.430194	0.316436	0.531234	0.738143	-0.415856	-0.054676	0.519691	0.852603						
04421														-5.014144	-7.563736	-0.059803	0.840659	-0.436982	0.319905	0.539274	0.729723	-0.420342	-0.049761	0.525881	0.849101						
04422														-4.501439	-7.957488	-0.104868	0.835325	-0.447688	0.319072	0.547791	0.726836	-0.414288	-0.046441	0.520850	0.852384						
04423														-4.382069	-8.378465	0.138520	0.827719	-0.464960	0.314156	0.559545	0.726115	-0.399583	-0.042323	0.506527	0.861185						
04424														-4.012005	-10.047479	0.122059	0.816554	-0.489193	0.306481	0.575994	0.725714	-0.376258	-0.038355	0.483766	0.874356						
04425														-2.532190	-11.950259	-0.037310	0.796411	-0.525538	0.299230	0.603719	0.719857	-0.342534	-0.035388	0.453448	0.890580						
04426														-1.857143	-12.509156	-0.818553	0.762902	-0.577597	0.290453	0.645779	0.702224	-0.299752	-0.030827	0.416250	0.908728						
04427														-2.582733	-12.710857	-1.247548	0.720149	-0.636089	0.277086	0.693235	0.676062	-0.249730	-0.028476	0.371928	0.927825						
04428														-3.095823	-12.486201	-0.550370	0.677049	-0.690601	0.254311	0.735180	0.650364	-0.191146	-0.033389	0.316380	0.948045						
04429														-2.299789	-12.484939	0.157759	0.635949	-0.739217	0.221648	0.770344	0.625272	-0.124917	-0.046250	0.250186	0.967093						
04430														-2.032068	-12.427205	0.560104	0.597253	-0.782280	0.176992	0.799571	0.598075	-0.054713	-0.063053	0.174195	0.982690						
04431														-2.778755	-12.317230	0.925644	0.570521	-0.812779	0.117878	0.817217	0.576084	0.016878	-0.081626	0.086703	0.992885						
04432														-1.845677	-13.246958	1.193157	0.545380	-0.836549	0.052409	0.831917	0.547874	0.088022	-0.102349	-0.004405	0.994739						
04433														-1.132529	-13.994174	2.196739	0.507925	-0.861298	-0.013340	0.852106	0.500114	0.154278	-0.126208	-0.089729	0.987937						
04434														-3.350271	-12.917008	2.341700	0.473301	-0.876733	-0.085582	0.867617	0.447151	0.217478	-0.152402	-0.177185	0.972306						
04435														-4.525523	-11.864980	2.408167	0.462798	-0.872051	-0.159199	0.866513	0.407141	0.288777	-0.187011	-0.271594	0.944068						
04436														-2.775151	-11.830847	3.066910	0.466011	-0.855323	-0.226397	0.855022	0.369543	0.363835	-0.227533	-0.363125	0.903531						
04437														-1.873087	-11.550691	4.282834	0.465436	-0.836097	-0.290364	0.843516	0.319673	0.431613	-0.268049	-0.445814	0.854049						
04438														-2.897050	-9.200821	3.981792	0.471683	-0.808015	-0.353025	0.827486	0.267320	0.493769	-0.304602	-0.525025	0.794711						
04439														-3.156425	-7.624949	2.994104	0.482949	-0.771716	-0.413781	0.807270	0.209326	0.551813	-0.339228	-0.600530	0.724077						
04440														-3.329636	-5.560999	3.592592	0.483137	-0.734113	-0.477135	0.792415	0.134862	0.594887	-0.372367	-0.665501	0.646879						
04441														-4.413653	-3.546082	5.048874	0.478736	-0.693021	-0.539011	0.781323	0.056285	0.621584	-0.400433	-0.718716	0.568419						
04442														-5.131468	-3.245967	5.410461	0.477992	-0.648546	-0.592377	0.771582	-0.012257	0.636012	-0.419744	-0.761076	0.494548						
04443														-5.249236	-3.385635	5.231020	0.479423	-0.603291	-0.637333	0.762188	-0.073738	0.643143	-0.434998	-0.794105	0.424469						
04444														-5.592274	-2.964440	5.358600	0.485276	-0.560772	-0.670852	0.751307	-0.125042	0.647998	-0.447264	-0.818474	0.360632						
04445														-5.407153	-2.971297	5.145655	0.494821	-0.526072	-0.691664	0.739925	-0.162326	0.652811	-0.455701	-0.834804	0.308932						
04446														-4.756911	-3.047944	5.020609	0.506098	-0.499616	-0.703028	0.729420	-0.187019	0.658005	-0.460230	-0.845818	0.269780						
04447														-4.334937	-2.593148	4.548031	0.516544	-0.480808	-0.708524	0.722540	-0.199270	0.661987	-0.459477	-0.853882	0.244471						
04448														-4.276588	-2.265347	4.002584	0.523407	-0.470363	-0.710495	0.721286	-0.199349	0.663330	-0.453643	-0.859662	0.234926						
04449														-4.401486	-1.896704	3.554634	0.526186	-0.469054	-0.709307	0.725097	-0.188281	0.662408	-0.444254	-0.862866	0.241039						
04450														-4.561746	-1.851596	3.555146	0.525985	-0.477315	-0.703925	0.733040	-0.165265	0.659803	-0.431268	-0.863051	0.262964						
04451														-5.094787	-2.305241	4.257958	0.522526	-0.494605	-0.694501	0.744480	-0.132360	0.654393	-0.415591	-0.858980	0.299062						
04452														-5.820443	-2.656021	5.804786	0.518132	-0.522771	-0.676942	0.758002	-0.085964	0.646562	-0.396196	-0.848128	0.351721						
04453														-6.382511	-3.425888	5.477936	0.517193	-0.561354	-0.646060	0.771246	-0.021592	0.636170	-0.371066	-0.827294	0.421775						
04454														-6.888786	-5.337600	4.019306	0.515202	-0.605755	-0.606323	0.786149	0.052225	0.615827	-0.341374	-0.793936	0.503120						
04455														-7.720844	-6.955727	3.487323	0.506372	-0.652620	-0.563626	0.804005	0.121048	0.582172	-0.311711	-0.747953	0.586005						
04456														-7.855813	-8.131622	4.278818	0.507607	-0.696229	-0.507544	0.812881	0.191736	0.549966	-0.285588	-0.691739	0.663278						
04457														-7.496369	-9.434969	4.954934	0.514458	-0.736337	-0.439479	0.816914	0.265008	0.512272	-0.260739	-0.622558	0.737859						
04458														-6.031836	-9.591739	4.349840	0.534512	-0.764399	-0.360542	0.812299	0.346839	0.468905	-0.233381	-0.543504	0.806311						
04459														-5.575156	-9.410843	3.301297	0.554298	-0.783471	-0.280940	0.807821	0.425120	0.408287	-0.200448	-0.453262	0.868547						
04460														-5.895143	-10.197439	2.865419	0.569497	-0.796904	-0.201538	0.805284	0.491706	0.331276	-0.164898	-0.350956	0.921758						
04461														-5.949181	-11.362638	2.375353	0.594401	-0.795244	-0.119475	0.792722	0.554460	0.253310	-0.135200	-0.245278	0.959979						
04462														-4.900342	-11.106261	1.589994	0.627860	-0.777290	-0.040165	0.770284	0.613145	0.175261	-0.111602	-0.140978	0.983702						
04463														-3.847141	-11.113454	0.893806	0.660049	-0.750675	0.028681	0.746086	0.659515	0.091630	-0.087700	-0.039082	0.995380						
04464														-3.750925	-11.508831	0.314394	0.687720	-0.720957	0.085220	0.723056	0.690736	0.008577	-0.065048	0.055720	0.996325						
04465														-4.440678	-10.854133	0.032251	0.709635	-0.691809	0.133487	0.703011	0.707835	-0.068880	-0.046835	0.142723	0.988654						
04466														-5.162292	-10.086508	0.399303	0.732356	-0.658457	0.173461	0.680131	0.719645	-0.139760	-0.032804	0.220330	0.974874						
04467														-5.379581	-9.699991	0.958725	0.757797	-0.619398	0.205157	0.652047	0.730462	-0.203124	-0.024045	0.287698	0.957419						
04468														-4.704533	-9.313851	0.856576	0.782725	-0.578393	0.229788	0.622031	0.739158	-0.258306	-0.020447	0.345118	0.938337						
04469														-4.316647	-9.043305	0.099672	0.801707	-0.543584	0.248561	0.597437	0.741497	-0.305370	-0.018313	0.393316	0.919221						
04470														-4.743775	-8.775092	-0.438533	0.814581	-0.517440	0.262134	0.579814	0.739253	-0.342520	-0.016550	0.430999	0.902200						
04471														-4.850980	-8.809354	-0.293812	0.821091	-0.500300	0.274792	0.570549	0.733572	-0.369250	-0.016844	0.459970	0.887775						
04472														-5.043485	-8.824573	0.321104	0.822747	-0.491442	0.285608	0.568097	0.727562	-0.384604	-0.018787	0.478685	0.877786						
04473														-5.078150	-8.747772	0.383951	0.821634	-0.489469	0.292126	0.569638	0.723731	-0.389521	-0.020762	0.486450	0.873462						
04474														-4.722017	-8.424682	-0.113423	0.815815	-0.496730	0.296152	0.577883	0.719965	-0.384320	-0.022316	0.484675	0.874410						
04475														-4.717711	-8.277409	-0.047329	0.803283	-0.514639	0.299803	0.595135	0.713380	-0.370005	-0.023455	0.475642	0.879326						
04476														-4.684044	-8.882675	0.269126	0.786234	-0.539811	0.300733	0.617428	0.705877	-0.347160	-0.024880	0.458630	0.888279						
04477														-4.594297	-9.833620	-0.312023	0.764559	-0.572039	0.297019	0.643934	0.698092	-0.313077	-0.028255	0.430627	0.902088						
04478														-3.774343	-10.120585	-0.559062	0.741773	-0.607424	0.284268	0.669820	0.692101	-0.268956	-0.033372	0.389913	0.920247						
04479														-2.990355	-10.388190	-0.960376	0.718520	-0.644031	0.262587	0.694369	0.685833	-0.217909	-0.039751	0.338905	0.939981						
04480														-2.770529	-11.120912	-0.243208	0.691705	-0.683062	0.234459	0.720584	0.674366	-0.161212	-0.047993	0.280459	0.958665						
04481														-2.234782	-12.416970	1.124383	0.659564	-0.724281	0.200980	0.749364	0.654449	-0.100750	-0.058560	0.217058	0.974401						
04482														-2.319596	-12.442188	2.014426	0.626042	-0.763586	0.158140	0.776749	0.628534	-0.040080	-0.068792	0.147927	0.986603						
04483														-3.080638	-12.418146	1.375070	0.606502	-0.788600	0.101314	0.791091	0.611290	0.022360	-0.079565	0.066587	0.994603						
04484														-2.962870	-12.449610	0.871277	0.596432	-0.801658	0.040165	0.796655	0.597337	0.092353	-0.098027	-0.023084	0.994916						
04485														-2.274266	-13.464815	1.556380	0.584433	-0.811057	-0.025010	0.802724	0.573373	0.163941	-0.118625	-0.115889	0.986153						
04486														-2.714003	-14.149148	2.113803	0.565873	-0.818647	-0.097999	0.812932	0.534150	0.232001	-0.137580	-0.210950	0.967766						
04487														-4.259628	-13.438421	2.424859	0.542030	-0.821475	-0.177153	0.826010	0.482012	0.292185	-0.154633	-0.304703	0.939811						
04488														-5.926011	-12.417501	2.606933	0.524940	-0.811038	-0.258179	0.832957	0.427157	0.351739	-0.174990	-0.399693	0.899791						
04489														-5.826136	-10.998048	3.241486	0.523447	-0.784680	-0.332084	0.827571	0.375435	0.417343	-0.202805	-0.493280	0.845899						
04490														-4.498328	-9.076045	3.800891	0.528456	-0.749561	-0.398613	0.816730	0.320723	0.479676	-0.231702	-0.579047	0.781677						
04491														-3.444528	-6.855993	3.795869	0.528071	-0.710976	-0.464385	0.809588	0.256424	0.528029	-0.256337	-0.654797	0.711008						
04492														-3.867411	-4.877564	3.816469	0.516932	-0.669837	-0.533010	0.810766	0.183327	0.555922	-0.274662	-0.719521	0.637849						
04493														-4.716812	-4.256798	4.314355	0.507287	-0.623567	-0.594831	0.811890	0.114378	0.572496	-0.288954	-0.773357	0.564291						
04494														-4.701540	-3.592126	4.375754	0.504710	-0.576458	-0.642622	0.808065	0.053495	0.586660	-0.303808	-0.815373	0.492815						
04495														-4.296405	-2.793540	4.129829	0.507245	-0.533713	-0.676648	0.801038	0.002389	0.598609	-0.317869	-0.845662	0.428736						
04496														-3.945918	-2.533983	4.372061	0.509903	-0.498651	-0.700961	0.795448	-0.036916	0.604897	-0.327509	-0.866017	0.377827						
04497														-3.779757	-2.534591	4.490745	0.512964	-0.472281	-0.716812	0.791743	-0.062346	0.607664	-0.331678	-0.879241	0.341944						
04498														-3.782255	-2.532131	4.354005	0.515268	-0.455493	-0.725965	0.790449	-0.074768	0.607948	-0.331195	-0.887094	0.321518						
04499														-3.880638	-2.248908	4.258308	0.517913	-0.449656	-0.727719	0.790089	-0.074653	0.608430	-0.327911	-0.890077	0.316604						
04500														-4.133465	-2.106817	4.425634	0.520932	-0.455202	-0.722095	0.791347	-0.059588	0.608456	-0.319998	-0.888392	0.329182						
04501														-4.895975	-2.564512	4.273241	0.525617	-0.471211	-0.708299	0.792317	-0.032021	0.609268	-0.309775	-0.881439	0.356518						
04502														-5.695665	-3.169496	4.742994	0.531664	-0.496782	-0.685960	0.792282	0.005439	0.610131	-0.299371	-0.867858	0.396483						
04503														-6.249938	-3.672335	5.101440	0.538185	-0.532083	-0.653639	0.792438	0.055316	0.607438	-0.287051	-0.844883	0.451413						
04504														-6.734749	-3.966956	4.172208	0.542443	-0.576142	-0.611405	0.794793	0.116194	0.595653	-0.272139	-0.809049	0.520942						
04505														-7.252402	-4.830631	3.914474	0.530616	-0.628826	-0.568352	0.808692	0.174723	0.561684	-0.253897	-0.757660	0.601238						
04506														-6.779039	-6.526181	4.188170	0.519397	-0.679279	-0.518465	0.823202	0.234956	0.516850	-0.229269	-0.695252	0.681220						
04507														-4.775447	-9.087313	0.482311	0.534511	-0.712307	-0.454880	0.819175	0.304201	0.486224	-0.207966	-0.632519	0.746103						
04508														-5.132011	-9.347740	0.797972	0.539143	-0.743916	-0.394859	0.820694	0.358743	0.444708	-0.189173	-0.563819	0.803941						
04509														-5.438361	-10.205420	2.534899	0.543459	-0.772657	-0.328105	0.821960	0.410473	0.394833	-0.170392	-0.484265	0.858169						
04510														-5.600447	-10.877472	3.217812	0.559320	-0.789235	-0.253514	0.815378	0.468684	0.339843	-0.149398	-0.396791	0.905669						
04511														-6.112052	-11.955145	3.105376	0.578928	-0.795900	-0.177161	0.805832	0.525330	0.273245	-0.124408	-0.300951	0.945490						
04512														-6.359863	-12.674818	1.664248	0.607230	-0.788584	-0.096989	0.788028	0.582178	0.200202	-0.101412	-0.197999	0.974942						
04513														-5.985245	-12.614145	0.130168	0.641606	-0.766807	-0.018662	0.762324	0.634785	0.126137	-0.084877	-0.095157	0.991837						
04514														-5.245514	-12.326095	0.049150	0.678187	-0.733055	0.051886	0.731358	0.680157	0.050017	-0.071956	0.004027	0.997400						
04515														-4.755648	-12.245218	-0.027135	0.714893	-0.690504	0.110146	0.696642	0.716901	-0.027248	-0.060150	0.096212	0.993542						
04516														-5.024244	-11.837863	-0.630866	0.747995	-0.645574	0.154067	0.661823	0.742967	-0.099957	-0.049937	0.176732	0.982991						
04517														-5.127656	-11.080947	-1.031309	0.777913	-0.600358	0.185530	0.626915	0.761603	-0.164129	-0.042765	0.243990	0.968834						
04518														-5.217478	-10.233084	-0.935011	0.801304	-0.560451	0.209300	0.597042	0.771430	-0.220082	-0.038115	0.301314	0.952763						
04519														-5.252665	-9.563909	0.182884	0.822074	-0.522592	0.226035	0.568283	0.777704	-0.268759	-0.035338	0.349392	0.936310						
04520														-4.491121	-9.084270	0.593285	0.838403	-0.491176	0.236274	0.544003	0.780937	-0.306918	-0.033764	0.385855	0.921942						
04521														-4.527821	-8.353214	0.939778	0.847344	-0.472236	0.242900	0.530105	0.779366	-0.334032	-0.031567	0.411803	0.910726						
04522														-5.033743	-7.507480	1.439348	0.850349	-0.463505	0.249137	0.525409	0.774105	-0.353139	-0.029177	0.431191	0.901789						
04523														-5.168933	-7.175772	1.887364	0.849608	-0.461772	0.254820	0.526669	0.768492	-0.363373	-0.028032	0.442930	0.896118						
04524														-5.102593	-6.940883	2.185807	0.845210	-0.467389	0.259166	0.533715	0.763328	-0.363976	-0.027711	0.445957	0.894625						
04525														-4.923988	-6.990863	1.814116	0.837702	-0.479867	0.260735	0.545442	0.759067	-0.355403	-0.027369	0.439937	0.897611						
04526														-4.536696	-7.669127	1.596867	0.824741	-0.501319	0.261689	0.564853	0.752576	-0.338482	-0.027254	0.426976	0.903852						
04527														-4.635185	-8.872400	1.965787	0.805727	-0.531693	0.260974	0.591678	0.742546	-0.313915	-0.026879	0.407342	0.912880						
04528														-4.377245	-10.208069	2.445650	0.782534	-0.567259	0.256630	0.622039	0.729939	-0.283295	-0.026622	0.381322	0.924059						
04529														-4.001513	-10.846310	1.502894	0.756043	-0.606529	0.246011	0.653936	0.715876	-0.244724	-0.027682	0.345897	0.937864						
04530														-3.562444	-10.542470	0.545182	0.723238	-0.651279	0.229702	0.689889	0.696432	-0.197573	-0.031297	0.301361	0.952996						
04531														-3.044550	-11.403332	1.399347	0.680952	-0.702263	0.207679	0.731421	0.666294	-0.145172	-0.036426	0.250756	0.967365						
04532														-2.818482	-13.217695	2.468116	0.631372	-0.755518	0.174818	0.774426	0.626034	-0.091359	-0.040419	0.193065	0.980353						
04533														-3.404042	-15.266061	1.448818	0.581139	-0.804462	0.122955	0.812562	0.581935	-0.033074	-0.044945	0.119129	0.991861						
04534														-4.563226	-15.894787	0.408593	0.541357	-0.838899	0.056411	0.838826	0.543460	0.031969	-0.057475	0.030012	0.997896						
04535														-4.226345	-15.740005	-0.124606	0.517268	-0.855681	-0.015616	0.851972	0.513124	0.104153	-0.081109	-0.067179	0.994439						
04536														-4.044005	-16.063818	0.093859	0.501857	-0.859965	-0.092736	0.857442	0.480537	0.184057	-0.113719	-0.171887	0.978531						
04537														-4.005923	-15.328849	1.083514	0.493357	-0.852666	-0.171930	0.855915	0.440678	0.270577	-0.154946	-0.280649	0.947221						
04538														-3.130437	-13.652719	1.849415	0.489650	-0.835510	-0.249331	0.848513	0.390796	0.356797	-0.200670	-0.386266	0.900294						
04539														-2.611497	-11.786101	2.582897	0.479639	-0.813759	-0.328242	0.842848	0.323229	0.430268	-0.244037	-0.483031	0.840909						
04540														-3.205760	-10.174237	3.354160	0.469447	-0.781615	-0.410729	0.836473	0.244737	0.490323	-0.282723	-0.573744	0.768691						
04541														-3.993621	-8.250101	3.572235	0.468783	-0.736511	-0.487641	0.823667	0.165055	0.542521	-0.319085	-0.655979	0.684015						
04542														-4.014529	-5.979672	3.240520	0.472327	-0.685322	-0.554294	0.807598	0.084546	0.583641	-0.353119	-0.723316	0.593398						
04543														-4.152242	-4.387102	3.485279	0.479664	-0.628899	-0.611889	0.789873	0.005784	0.613243	-0.382129	-0.777465	0.499525						
04544														-3.618247	-3.163180	3.985154	0.494801	-0.569163	-0.656678	0.768733	-0.065710	0.636186	-0.405243	-0.819595	0.405021						
04545														-3.162092	-2.220842	3.938253	0.509426	-0.512029	-0.691600	0.752084	-0.125625	0.646984	-0.418157	-0.849732	0.321093						
04546														-3.660718	-2.301452	3.895395	0.517571	-0.461539	-0.720487	0.743927	-0.173273	0.645407	-0.422722	-0.870033	0.253670						
04547														-4.620801	-2.132413	4.674130	0.523695	-0.420598	-0.740838	0.738633	-0.209110	0.640855	-0.424458	-0.882820	0.201158						
04548														-5.022716	-1.782369	4.934041	0.532291	-0.392880	-0.749874	0.732209	-0.230922	0.640738	-0.424896	-0.890124	0.164752						
04549														-4.629031	-1.517710	4.678559	0.542160	-0.378042	-0.750431	0.725967	-0.238975	0.644874	-0.423124	-0.894413	0.144883						
04550														-4.098861	-1.107071	4.557631	0.549554	-0.373197	-0.747472	0.723673	-0.234434	0.649105	-0.417477	-0.897644	0.141239						
04551														-4.417802	-0.811601	4.662015	0.554234	-0.378844	-0.741149	0.725651	-0.216268	0.653192	-0.407744	-0.899836	0.155045						
04552														-4.752535	-0.755971	4.822187	0.557861	-0.395649	-0.729556	0.730186	-0.183850	0.658048	-0.394486	-0.899811	0.186335						
04553														-5.250092	-1.462384	5.213482	0.559385	-0.422337	-0.713246	0.738307	-0.137302	0.660341	-0.376817	-0.895980	0.235010						
04554														-5.970888	-2.624727	5.670844	0.559528	-0.458268	-0.690593	0.747537	-0.080806	0.659286	-0.357934	-0.885133	0.297359						
04555														-6.483234	-2.881511	6.192687	0.562279	-0.502653	-0.656644	0.753873	-0.014784	0.656853	-0.339877	-0.864362	0.370624						
04556														-6.185089	-3.237121	5.446297	0.566321	-0.554166	-0.610067	0.759443	0.063300	0.647487	-0.320198	-0.829996	0.456706						
04557														-5.719155	-4.718990	4.658353	0.562814	-0.608671	-0.559249	0.772036	0.145382	0.618728	-0.295297	-0.779990	0.551739						
04558														-6.312108	-6.962380	4.949642	0.544108	-0.665249	-0.511263	0.796347	0.217631	0.564329	-0.264153	-0.714199	0.648184						
04559														-6.165821	-7.657965	3.902838	0.545766	-0.709290	-0.446147	0.804267	0.293996	0.516450	-0.235147	-0.640682	0.730912						
04560														-6.139079	-9.645443	2.688537	0.546766	-0.748806	-0.374615	0.811004	0.362419	0.459266	-0.208134	-0.554925	0.805443						
04561														-6.562935	-11.678689	4.617982	0.551955	-0.780646	-0.293153	0.812832	0.425206	0.398125	-0.186144	-0.458031	0.869229						
04562														-5.752233	-11.585299	3.903291	0.575628	-0.790999	-0.207297	0.800413	0.493177	0.340757	-0.167305	-0.362073	0.917013						
04563														-6.199069	-11.313921	3.554345	0.600749	-0.789912	-0.123043	0.785990	0.555495	0.271375	-0.146013	-0.259739	0.954576						
04564														-5.805550	-11.526514	2.763014	0.629511	-0.775813	-0.042782	0.766843	0.611477	0.195060	-0.125170	-0.155599	0.979858						
04565														-5.719592	-11.608728	1.614775	0.659950	-0.750673	0.030908	0.743420	0.658414	0.117547	-0.108590	-0.054598	0.992586						
04566														-5.320489	-11.287841	0.705969	0.688313	-0.718958	0.096563	0.719133	0.693760	0.039307	-0.095252	0.042386	0.994550						
04567														-4.885289	-11.191592	0.322116	0.714893	-0.682488	0.152113	0.694216	0.718779	-0.037686	-0.083615	0.132540	0.987644						
04568														-4.727321	-11.393344	-0.261043	0.735778	-0.648259	0.195936	0.673190	0.731644	-0.107300	-0.073797	0.210851	0.974729						
04569														-5.167229	-10.878607	-0.413937	0.754504	-0.615384	0.228093	0.652820	0.739445	-0.164462	-0.067455	0.272991	0.959649						
04570														-5.471057	-9.945137	0.260804	0.768905	-0.586675	0.254162	0.636109	0.742008	-0.211636	-0.064428	0.324403	0.943722						
04571														-5.755527	-9.001467	1.562527	0.782885	-0.559563	0.271993	0.618957	0.744823	-0.249261	-0.063109	0.363494	0.929456						
04572														-5.734787	-8.026854	1.983699	0.796093	-0.535648	0.281633	0.601934	0.748957	-0.277018	-0.062547	0.390057	0.918664						
04573														-5.401708	-6.816435	2.149154	0.803367	-0.521652	0.287195	0.592361	0.749405	-0.295806	-0.060918	0.407763	0.911053						
04574														-5.093977	-6.361583	2.377167	0.804989	-0.517344	0.290426	0.590503	0.746036	-0.307794	-0.057433	0.419268	0.906044						
04575														-5.219483	-7.024905	1.761817	0.802533	-0.521422	0.289930	0.594263	0.741683	-0.311060	-0.052843	0.421931	0.905087						
04576														-5.204729	-7.518316	1.055711	0.795526	-0.534134	0.286076	0.603965	0.736903	-0.303646	-0.048623	0.414338	0.908823						
04577														-5.076159	-8.296242	0.777236	0.782632	-0.556189	0.279538	0.620857	0.729909	-0.285954	-0.044993	0.397349	0.916564						
04578														-5.083559	-9.300009	0.937547	0.765088	-0.584867	0.269389	0.642485	0.721329	-0.258644	-0.043046	0.370964	0.927649						
04579														-4.736193	-11.242209	0.847703	0.742667	-0.618856	0.255858	0.668237	0.709767	-0.222914	-0.043647	0.336525	0.940663						
04580														-3.789260	-12.130116	1.030164	0.708463	-0.663449	0.240656	0.704217	0.687005	-0.179173	-0.046460	0.296412	0.953929						
04581														-3.124119	-11.996636	0.922808	0.663907	-0.714730	0.219971	0.746138	0.652801	-0.130879	-0.050054	0.251021	0.966687						
04582														-2.856115	-12.688193	0.701546	0.611223	-0.768220	0.190379	0.789556	0.608517	-0.079419	-0.054837	0.198858	0.978493						
04583														-3.297501	-13.303762	0.531607	0.563018	-0.813318	0.146714	0.823932	0.566223	-0.022964	-0.064396	0.133812	0.988912						
04584														-3.066387	-13.105070	0.541202	0.525695	-0.845837	0.090581	0.846798	0.530478	0.039081	-0.081107	0.056159	0.995122						
04585														-2.353007	-13.682753	1.000490	0.495473	-0.868275	0.024591	0.862449	0.495123	0.105049	-0.103387	-0.030841	0.994163						
04586														-2.479950	-14.291837	1.670492	0.470836	-0.880758	-0.050779	0.872718	0.456567	0.172944	-0.129137	-0.125744	0.983622						
04587														-2.970410	-13.894448	2.015726	0.450595	-0.883093	-0.130804	0.878591	0.412702	0.240322	-0.158244	-0.223211	0.961840						
04588														-3.697972	-13.389127	2.754424	0.435013	-0.875089	-0.212094	0.879957	0.363227	0.306172	-0.190890	-0.319823	0.928049						
04589														-4.444781	-12.546633	3.288954	0.430233	-0.854627	-0.290708	0.872816	0.311623	0.375610	-0.230415	-0.415335	0.880003						
04590														-3.876712	-11.405355	3.301113	0.439896	-0.821445	-0.362933	0.854594	0.258711	0.450263	-0.275972	-0.508229	0.815808						
04591														-3.265478	-9.821712	3.649249	0.450893	-0.780954	-0.432211	0.832898	0.194037	0.518296	-0.320901	-0.593684	0.737945						
04592														-3.545315	-8.197925	4.016903	0.462563	-0.733294	-0.498312	0.808060	0.117437	0.577276	-0.364793	-0.669693	0.646868						
04593														-3.631135	-5.414930	4.509424	0.476703	-0.678728	-0.558644	0.777937	0.029791	0.627635	-0.409351	-0.733785	0.542209						
04594														-3.161620	-2.455327	4.512040	0.491639	-0.621022	-0.610428	0.747364	-0.058853	0.661803	-0.446920	-0.781580	0.435195						
04595														-2.707214	-0.631300	3.945839	0.501301	-0.565247	-0.655129	0.723346	-0.141729	0.675784	-0.474835	-0.812656	0.337820						
04596														-3.312094	-0.020817	4.216997	0.504552	-0.513610	-0.693998	0.708643	-0.212824	0.672704	-0.493207	-0.831211	0.256585						
04597														-4.489589	-0.164403	4.327453	0.506314	-0.471251	-0.722197	0.698688	-0.266697	0.663858	-0.505451	-0.840711	0.194226						
04598														-4.563725	-0.221049	4.920727	0.511267	-0.444150	-0.735756	0.687785	-0.301879	0.660167	-0.515323	-0.843564	0.151139						
04599														-3.590426	-0.496759	4.753961	0.517418	-0.434867	-0.737000	0.679144	-0.315292	0.662838	-0.520616	-0.843494	0.132200						
04600														-3.194040	-1.014624	4.840721	0.518620	-0.439435	-0.733437	0.679074	-0.309518	0.665625	-0.519511	-0.843265	0.137887						
04601														-3.969075	-1.309675	5.406784	0.514021	-0.455645	-0.726753	0.688803	-0.285677	0.666287	-0.511207	-0.843075	0.167006						
04602														-5.188743	-2.270873	5.489714	0.508065	-0.484299	-0.712267	0.703569	-0.243673	0.667543	-0.496850	-0.840285	0.216936						
04603														-5.761117	-2.879229	5.445423	0.502846	-0.523943	-0.687480	0.718877	-0.188137	0.669194	-0.479960	-0.830715	0.282047						
04604														-5.815123	-3.031616	5.622479	0.498151	-0.572569	-0.651161	0.736810	-0.116380	0.666008	-0.457117	-0.811554	0.363900						
04605														-6.681102	-5.188351	4.925867	0.489301	-0.628532	-0.604592	0.760931	-0.031034	0.648090	-0.426109	-0.777164	0.463084						
04606														-7.037513	-6.373137	4.114023	0.482933	-0.686253	-0.543905	0.779818	0.054506	0.623629	-0.398322	-0.725318	0.561475						
04607														-5.693363	-5.909697	3.087219	0.492387	-0.734694	-0.466669	0.788109	0.148801	0.597279	-0.369377	-0.661878	0.652287						
04608														-4.531247	-8.318970	2.635832	0.490069	-0.778446	-0.392243	0.806234	0.233718	0.543473	-0.331390	-0.582579	0.742147						
04609														-5.107163	-11.584583	3.966169	0.476086	-0.818045	-0.322716	0.830158	0.296998	0.471837	-0.290138	-0.492540	0.820503						
04610														-5.496007	-11.469597	3.862529	0.487333	-0.838077	-0.245221	0.836798	0.367961	0.405430	-0.249550	-0.402779	0.880621						
04611														-6.147529	-11.690234	3.459543	0.510343	-0.844212	-0.163876	0.835273	0.441262	0.328035	-0.204619	-0.304292	0.930343						
04612														-6.362479	-13.463825	3.178000	0.545369	-0.834059	-0.083183	0.822416	0.513293	0.245281	-0.161881	-0.202180	0.965877						
04613														-6.145380	-13.247217	1.837543	0.595694	-0.803152	-0.009789	0.792263	0.585525	0.171697	-0.132168	-0.110034	0.985101						
04614														-5.456761	-11.943883	0.623521	0.644235	-0.762868	0.054709	0.756891	0.646195	0.097711	-0.109894	-0.021540	0.993710						
04615														-4.292499	-11.603546	1.010888	0.686126	-0.719478	0.107624	0.722036	0.691565	0.020060	-0.088862	0.063945	0.993989						
04616														-3.854035	-11.763931	1.327057	0.716729	-0.681700	0.146917	0.693641	0.718620	-0.049477	-0.071849	0.137369	0.987911						
04617														-4.768248	-10.521265	1.427656	0.739336	-0.649491	0.177603	0.670590	0.734044	-0.107183	-0.060754	0.198344	0.978248						
04618														-5.202208	-9.438130	1.596523	0.760057	-0.617589	0.202231	0.647619	0.745631	-0.156917	-0.053879	0.250234	0.966685						
04619														-5.321670	-8.709832	2.093456	0.779336	-0.586770	0.219854	0.624516	0.755989	-0.196114	-0.051134	0.290141	0.955617						
04620														-5.478720	-7.529373	2.156321	0.796899	-0.558313	0.230736	0.601835	0.766843	-0.223040	-0.052412	0.316605	0.947108						
04621														-5.328604	-6.658639	2.063473	0.810514	-0.535633	0.236990	0.583112	0.776037	-0.240304	-0.055198	0.332961	0.941324						
04622														-4.622994	-6.485557	2.061705	0.816099	-0.524381	0.242913	0.574913	0.779426	-0.248936	-0.058796	0.342811	0.937563						
04623														-4.758912	-6.633672	2.359235	0.811146	-0.528575	0.250302	0.581664	0.773690	-0.251139	-0.060910	0.349302	0.935029						
04624														-5.601290	-7.846685	1.926987	0.804428	-0.537440	0.253089	0.590747	0.768593	-0.245528	-0.062566	0.347021	0.935768						
04625														-5.542882	-8.707881	1.163195	0.796340	-0.550222	0.251193	0.601130	0.765948	-0.227963	-0.066970	0.332535	0.940710						
04626														-4.926072	-9.549301	1.209617	0.782889	-0.571436	0.246061	0.618014	0.759857	-0.201684	-0.071722	0.309966	0.948039						
04627														-4.978916	-10.454515	1.597347	0.760700	-0.604255	0.237090	0.644684	0.745872	-0.167504	-0.075624	0.280268	0.956938						
04628														-4.754750	-10.569138	1.638844	0.732851	-0.643306	0.221557	0.675609	0.726573	-0.125078	-0.080515	0.241349	0.967092						
04629														-4.238187	-11.255359	0.944111	0.702882	-0.683892	0.195570	0.706051	0.704160	-0.075171	-0.086303	0.190919	0.977804						
04630														-3.562467	-11.278320	0.980885	0.668464	-0.725952	0.161709	0.737707	0.674823	-0.020046	-0.094572	0.132694	0.986635						
04631														-3.127965	-12.038159	1.898846	0.625065	-0.771085	0.121336	0.773612	0.632674	0.035337	-0.104014	0.071779	0.991982						
04632														-3.618198	-13.702879	2.340790	0.579264	-0.812296	0.068032	0.807147	0.583242	0.091334	-0.113870	0.002006	0.993494						
04633														-4.482313	-14.045757	2.127561	0.547758	-0.836636	0.001102	0.826766	0.541496	0.152448	-0.128140	-0.082594	0.988311						
04634														-3.506110	-13.972170	1.791374	0.525556	-0.847819	-0.070667	0.837515	0.500987	0.218128	-0.149530	-0.173823	0.973358						
04635														-2.713316	-14.768970	2.609306	0.499310	-0.853632	-0.148330	0.848785	0.447556	0.281527	-0.173935	-0.266469	0.948019						
04636														-3.646089	-14.116781	3.383791	0.474227	-0.849341	-0.231793	0.857495	0.385925	0.340241	-0.199526	-0.360113	0.911322						
04637														-4.706376	-12.328178	3.344744	0.459965	-0.830880	-0.313161	0.857527	0.324159	0.399460	-0.230389	-0.452281	0.861604						
04638														-4.758873	-10.524274	3.829112	0.459169	-0.800104	-0.386003	0.846786	0.262854	0.462452	-0.268547	-0.539205	0.798211						
04639														-3.736629	-8.760772	4.319142	0.466903	-0.761903	-0.448893	0.828220	0.198853	0.523937	-0.309925	-0.616410	0.723868						
04640														-2.373929	-6.697380	4.424665	0.477171	-0.718393	-0.506182	0.807356	0.130852	0.575373	-0.347109	-0.683220	0.642437						
04641														-2.612185	-5.064389	4.147386	0.481939	-0.671656	-0.562684	0.791632	0.058511	0.608190	-0.375571	-0.738549	0.559903						
04642														-3.366408	-3.406252	3.937587	0.484221	-0.622781	-0.614552	0.778914	-0.013093	0.626994	-0.398526	-0.782287	0.478753						
04643														-3.872336	-2.294611	3.791313	0.488617	-0.575786	-0.655533	0.766198	-0.076237	0.638067	-0.417366	-0.814038	0.403916						
04644														-4.099048	-1.898196	3.877161	0.494977	-0.534616	-0.684970	0.753276	-0.128907	0.644948	-0.433097	-0.835206	0.338907						
04645														-3.944942	-1.607309	4.016575	0.501941	-0.502103	-0.704235	0.741661	-0.169027	0.649129	-0.444965	-0.848129	0.287549						
04646														-4.020521	-1.199253	4.071114	0.503960	-0.480736	-0.717578	0.735344	-0.197013	0.648425	-0.453093	-0.854447	0.254220						
04647														-4.610745	-1.107828	4.838412	0.500639	-0.472881	-0.725082	0.735271	-0.209782	0.644490	-0.456877	-0.855789	0.242671						
04648														-4.420758	-1.685198	5.701654	0.499154	-0.477701	-0.722944	0.738917	-0.201124	0.643079	-0.452601	-0.855191	0.252589						
04649														-4.367459	-2.183749	4.974151	0.499098	-0.492941	-0.712679	0.746144	-0.173752	0.642713	-0.440649	-0.852537	0.281085						
04650														-5.190786	-2.836903	4.671903	0.494982	-0.519012	-0.696864	0.757594	-0.134946	0.638624	-0.425493	-0.844047	0.326404						
04651														-6.091217	-3.378835	5.376900	0.491014	-0.555802	-0.670813	0.769524	-0.084213	0.633042	-0.408337	-0.827039	0.386353						
04652														-5.869514	-4.055822	5.346971	0.494707	-0.599338	-0.629332	0.778012	-0.017252	0.628012	-0.387249	-0.800310	0.457758						
04653														-6.306375	-4.486875	5.168748	0.486381	-0.649848	-0.584065	0.796692	0.055365	0.601845	-0.358771	-0.758045	0.544657						
04654														-6.754670	-5.851533	4.418128	0.481198	-0.702788	-0.523963	0.813742	0.135834	0.565132	-0.325996	-0.698311	0.637251						
04655														-4.913986	-7.943562	2.067405	0.495119	-0.744480	-0.447892	0.815203	0.219773	0.535858	-0.300501	-0.630436	0.715716						
04656														-4.054597	-8.616684	2.743533	0.498723	-0.782791	-0.372174	0.821024	0.289001	0.492339	-0.277840	-0.551104	0.786822						
04657														-4.409957	-10.630201	4.341418	0.482575	-0.823612	-0.297968	0.839656	0.338242	0.424935	-0.249197	-0.455254	0.854778						
04658														-4.860462	-11.735549	3.623145	0.488380	-0.845719	-0.215044	0.843745	0.394771	0.363661	-0.222663	-0.359047	0.906370						
04659														-4.775809	-11.238348	2.687515	0.506532	-0.852115	-0.131627	0.839275	0.452288	0.301749	-0.197592	-0.263317	0.944257						
04660														-4.425638	-12.251147	2.969376	0.529009	-0.847265	-0.047866	0.831027	0.505794	0.231445	-0.171885	-0.162214	0.971670						
04661														-5.021978	-13.038230	2.625674	0.555190	-0.831146	0.030987	0.818131	0.552446	0.159580	-0.149753	-0.063246	0.986698						
04662														-5.583515	-12.607404	1.967099	0.585537	-0.804519	0.099476	0.799857	0.593331	0.090484	-0.131818	0.026585	0.990917						
04663														-6.250548	-12.069428	1.578748	0.620181	-0.768019	0.159756	0.775543	0.630900	0.022321	-0.117933	0.110055	0.986904						
04664														-5.718838	-11.349152	1.210445	0.657317	-0.723655	0.210374	0.745477	0.665282	-0.040786	-0.110443	0.183638	0.976770						
04665														-4.990375	-10.414938	0.512092	0.691153	-0.678409	0.249135	0.714895	0.692327	-0.098025	-0.105982	0.245856	0.963495						
04666														-4.774162	-9.678832	-0.011787	0.715943	-0.640928	0.276833	0.690559	0.708446	-0.145714	-0.102729	0.295492	0.949806						
04667														-5.034818	-8.923400	0.079367	0.731207	-0.613935	0.297356	0.674675	0.715241	-0.182326	-0.100745	0.333937	0.937196						
04668														-5.536798	-8.005188	0.729574	0.740411	-0.595577	0.311577	0.664734	0.717506	-0.208123	-0.099605	0.361212	0.927149						
04669														-5.470039	-7.715712	0.881587	0.747300	-0.583238	0.318396	0.657008	0.720230	-0.222730	-0.099414	0.375635	0.921420						
04670														-5.054890	-7.423509	0.761026	0.748619	-0.580689	0.319953	0.655420	0.720949	-0.225073	-0.099972	0.378197	0.920311						
04671														-5.058099	-6.850632	1.180337	0.745369	-0.586739	0.316483	0.659192	0.719502	-0.218594	-0.099453	0.371556	0.923068						
04672														-4.765673	-7.211882	1.507103	0.738860	-0.599241	0.308215	0.666632	0.716806	-0.204430	-0.098428	0.356511	0.929092						
04673														-4.656589	-7.862878	1.759873	0.726638	-0.619879	0.296221	0.680046	0.710250	-0.181885	-0.097644	0.333609	0.937641						
04674														-4.822345	-8.611811	1.715440	0.712432	-0.643957	0.278853	0.694967	0.702539	-0.153169	-0.097271	0.302917	0.948040						
04675														-4.476785	-9.808647	1.826771	0.695400	-0.670695	0.258043	0.711786	0.692260	-0.118896	-0.098890	0.266352	0.958790						
04676														-3.444068	-11.392749	2.110511	0.670221	-0.703671	0.235905	0.735063	0.673242	-0.080173	-0.102406	0.227138	0.968463						
04677														-3.383579	-11.978285	1.586922	0.639561	-0.740568	0.206206	0.761290	0.647405	-0.036102	-0.106762	0.180072	0.977842						
04678														-3.267689	-11.517506	0.644895	0.607844	-0.776074	0.168031	0.785760	0.618382	0.013635	-0.114489	0.123744	0.985687						
04679														-3.273189	-11.582010	1.975983	0.571919	-0.811250	0.121580	0.810811	0.581543	0.066286	-0.124479	0.060668	0.990366						
04680														-2.979754	-13.776355	3.608245	0.539061	-0.839818	0.064180	0.831473	0.542766	0.118568	-0.134410	-0.010551	0.990870						
04681														-3.447952	-14.357604	3.123061	0.516207	-0.856459	-0.002899	0.843794	0.507988	0.173088	-0.146770	-0.091795	0.984902						
04682														-3.881958	-13.777132	2.226319	0.499378	-0.863199	-0.074229	0.850557	0.472150	0.231576	-0.164849	-0.178780	0.969981						
04683														-4.090320	-13.654489	3.229491	0.486894	-0.860773	-0.148336	0.853012	0.432055	0.292745	-0.187898	-0.269068	0.944614						
04684														-4.524497	-13.554943	3.997890	0.483496	-0.846282	-0.223692	0.848660	0.390572	0.356692	-0.214494	-0.362297	0.907046						
04685														-4.452657	-12.118620	3.995890	0.484752	-0.823363	-0.295109	0.839510	0.343314	0.421141	-0.245437	-0.451895	0.857643						
04686														-3.852169	-9.974404	3.785892	0.488959	-0.793702	-0.361878	0.826251	0.288392	0.483880	-0.279694	-0.535600	0.796809						
04687														-3.280157	-7.586846	3.792322	0.492534	-0.758889	-0.426024	0.811926	0.224433	0.538893	-0.313346	-0.611324	0.726703						
04688														-3.389424	-5.674481	4.063796	0.491122	-0.720983	-0.488858	0.800403	0.152053	0.579857	-0.343735	-0.676064	0.651754						
04689														-3.677119	-3.893022	4.292702	0.491396	-0.678529	-0.546011	0.787880	0.079143	0.610722	-0.371180	-0.730298	0.573490						
04690														-3.765670	-2.904865	3.970879	0.493804	-0.634690	-0.594412	0.775059	0.011320	0.631788	-0.394261	-0.772684	0.497512						
04691														-3.730782	-2.476411	3.968823	0.495807	-0.592258	-0.635142	0.762971	-0.052253	0.644317	-0.414790	-0.804052	0.425969						
04692														-3.718702	-1.521499	4.414397	0.500608	-0.552625	-0.666331	0.749064	-0.109306	0.653418	-0.433930	-0.826231	0.359232						
04693														-3.503224	-1.121332	4.704275	0.508162	-0.518577	-0.687641	0.736025	-0.153139	0.659406	-0.447257	-0.841205	0.303866						
04694														-3.715743	-1.330462	5.327722	0.513034	-0.491408	-0.703786	0.727625	-0.185994	0.660278	-0.455366	-0.850838	0.262140						
04695														-4.275390	-0.980755	5.914975	0.515540	-0.471428	-0.715524	0.724536	-0.205973	0.657741	-0.457456	-0.857514	0.235379						
04696														-5.260090	-1.178125	6.079346	0.519012	-0.462261	-0.718986	0.724618	-0.208213	0.656945	-0.453382	-0.861953	0.226897						
04697														-5.747996	-1.643450	6.037627	0.524654	-0.466038	-0.712423	0.724757	-0.194511	0.660978	-0.446616	-0.863119	0.235713						
04698														-5.867460	-2.206542	5.306696	0.529569	-0.481599	-0.698297	0.727288	-0.165908	0.665978	-0.436587	-0.860544	0.262402						
04699														-6.121590	-3.021719	5.138022	0.531987	-0.505148	-0.679570	0.732580	-0.127899	0.668557	-0.424637	-0.853503	0.302020						
04700														-6.328989	-3.223393	5.033613	0.535637	-0.534813	-0.653504	0.737994	-0.079670	0.670088	-0.410437	-0.841206	0.352014						
04701														-6.278150	-3.688613	3.971315	0.539739	-0.569296	-0.620149	0.743765	-0.022585	0.668060	-0.394330	-0.821822	0.411233						
04702														-6.385371	-4.249889	3.745976	0.538456	-0.608286	-0.583140	0.753545	0.037866	0.656305	-0.377140	-0.792814	0.478760						
04703														-6.695011	-5.390824	4.353375	0.531742	-0.650245	-0.542616	0.768966	0.102217	0.631064	-0.354882	-0.752817	0.554370						
04704														-6.602033	-7.153178	4.482628	0.527554	-0.690803	-0.494448	0.784202	0.172192	0.596136	-0.326672	-0.702240	0.632569						
04705														-7.138534	-8.829507	3.809050	0.519478	-0.730648	-0.443054	0.801579	0.237077	0.548877	-0.295998	-0.640272	0.708828						
04706														-6.975212	-9.054903	3.959531	0.526402	-0.761491	-0.378195	0.806300	0.305957	0.506232	-0.269780	-0.571420	0.775047						
04707														-5.512283	-8.923372	3.638963	0.548442	-0.778861	-0.304282	0.800102	0.383049	0.461639	-0.242998	-0.496638	0.833248						
04708														-5.290662	-10.237986	4.037721	0.564471	-0.792074	-0.232359	0.798190	0.452008	0.398222	-0.210393	-0.410252	0.887371						
04709														-6.252389	-11.884530	3.572359	0.575046	-0.801674	-0.163220	0.798458	0.506465	0.325512	-0.178289	-0.317509	0.931344						
04710														-6.518950	-12.089735	2.219953	0.593592	-0.799726	-0.089924	0.789602	0.557170	0.257081	-0.155491	-0.223605	0.962197						
04711														-5.217779	-12.005650	2.055823	0.619970	-0.784460	-0.016119	0.772311	0.606486	0.188971	-0.138464	-0.129605	0.981850						
04712														-3.360503	-12.248199	1.618011	0.645283	-0.762331	0.049613	0.753978	0.645977	0.119295	-0.122992	-0.039572	0.991618						
04713														-3.859908	-11.405386	0.847006	0.660217	-0.743469	0.106618	0.743048	0.667245	0.051619	-0.109517	0.045142	0.992959						
04714														-4.455494	-10.363259	0.240652	0.671852	-0.723977	0.156440	0.734015	0.679063	-0.009741	-0.099180	0.121373	0.987639						
04715														-4.405012	-9.497461	0.293769	0.684187	-0.701790	0.198442	0.723506	0.687386	-0.063557	-0.091803	0.187059	0.978050						
04716														-4.276101	-8.831523	0.758863	0.695761	-0.679118	0.233912	0.712922	0.692611	-0.109695	-0.087514	0.243082	0.966050						
04717														-4.392252	-8.493134	1.086528	0.705601	-0.657876	0.263299	0.703510	0.694866	-0.149113	-0.084860	0.290448	0.953121						
04718														-4.645273	-8.239954	1.268253	0.714131	-0.638943	0.285952	0.695116	0.695501	-0.181912	-0.082648	0.328679	0.940818						
04719														-4.968261	-8.080559	1.446742	0.721352	-0.623065	0.302393	0.687890	0.695244	-0.208431	-0.080371	0.358365	0.930116						
04720														-4.982467	-8.079194	1.490223	0.726572	-0.611327	0.313646	0.682563	0.694514	-0.227506	-0.078751	0.379382	0.921883						
04721														-5.092717	-7.991007	1.295689	0.728038	-0.606241	0.320050	0.681078	0.692801	-0.236980	-0.078064	0.390510	0.917283						
04722														-5.293749	-8.109248	1.401921	0.725635	-0.607732	0.322670	0.683615	0.690081	-0.237611	-0.078264	0.393001	0.916201						
04723														-5.048817	-8.297741	1.255201	0.721406	-0.614330	0.319643	0.687989	0.688449	-0.229585	-0.079017	0.385535	0.919303						
04724														-4.892878	-8.891295	0.571407	0.713584	-0.628004	0.310498	0.695942	0.686303	-0.211314	-0.080390	0.366879	0.926789						
04725														-4.849267	-9.443851	0.967322	0.699046	-0.650208	0.297598	0.710338	0.679251	-0.184491	-0.082186	0.340363	0.936695						
04726														-4.499709	-9.761918	1.113361	0.680055	-0.678119	0.278712	0.728168	0.669006	-0.149003	-0.085418	0.304279	0.948746						
04727														-3.944963	-9.028038	0.573283	0.656811	-0.710473	0.252641	0.748380	0.655221	-0.103023	-0.092341	0.256738	0.962060						
04728														-2.979599	-9.174199	1.159557	0.624681	-0.748569	0.222303	0.774127	0.631013	-0.050501	-0.102473	0.203637	0.973669						
04729														-2.508006	-10.806409	2.371013	0.587213	-0.788541	0.182711	0.801463	0.598022	0.005119	-0.113302	0.143430	0.983153						
04730														-2.536073	-12.306371	3.180862	0.549198	-0.825339	0.131139	0.826455	0.559666	0.061207	-0.123910	0.074766	0.989473						
04731														-2.559677	-13.591449	3.401474	0.511083	-0.856760	0.068963	0.848946	0.515715	0.115450	-0.134478	-0.000458	0.990916						
04732														-3.077870	-14.624353	3.238305	0.478767	-0.877930	-0.004471	0.865494	0.471119	0.170197	-0.147314	-0.085355	0.985400						
04733														-3.936738	-15.127343	3.250303	0.456399	-0.885697	-0.085096	0.874191	0.428529	0.228370	-0.165800	-0.178617	0.969848						
04734														-4.332572	-14.682425	4.431757	0.443090	-0.880892	-0.166437	0.875901	0.385844	0.289694	-0.190970	-0.274143	0.942537						
04735														-4.625331	-14.065449	5.339421	0.437664	-0.865066	-0.245177	0.871766	0.341488	0.351298	-0.220171	-0.367487	0.903592						
04736														-4.791761	-13.452571	4.776602	0.446341	-0.836716	-0.317310	0.858328	0.300014	0.416250	-0.253086	-0.458146	0.852086						
04737														-3.946465	-11.332695	3.701062	0.463396	-0.799810	-0.381534	0.837358	0.254319	0.483894	-0.289992	-0.543715	0.787577						
04738														-3.200427	-8.885958	3.585860	0.477616	-0.760035	-0.440716	0.815267	0.196446	0.544747	-0.327449	-0.619481	0.713457						
04739														-3.380535	-6.337039	3.805729	0.484928	-0.718581	-0.498485	0.796204	0.126940	0.591562	-0.361807	-0.683760	0.633694						
04740														-3.555574	-4.431122	3.892551	0.490314	-0.674142	-0.552380	0.778807	0.054406	0.624900	-0.391218	-0.736595	0.551703						
04741														-3.725793	-3.253274	4.051508	0.493450	-0.629723	-0.599964	0.763799	-0.016244	0.645249	-0.416074	-0.776650	0.472966						
04742														-3.849831	-2.317954	3.937857	0.497543	-0.587877	-0.637849	0.749652	-0.078556	0.657154	-0.436433	-0.805127	0.401618						
04743														-3.902379	-1.776261	3.662644	0.501373	-0.551329	-0.666829	0.736698	-0.132168	0.663180	-0.453764	-0.823752	0.339898						
04744														-3.383767	-1.279172	3.569687	0.508659	-0.521416	-0.685122	0.722708	-0.173908	0.668917	-0.467932	-0.835393	0.288372						
04745														-2.934060	-1.065936	3.800003	0.512801	-0.498733	-0.698785	0.714422	-0.203454	0.669483	-0.476064	-0.842539	0.251974						
04746														-3.619571	-1.246726	4.325536	0.510873	-0.484473	-0.710137	0.715089	-0.219001	0.663842	-0.477135	-0.846950	0.234560						
04747														-5.006866	-1.918114	5.175284	0.506924	-0.481681	-0.714851	0.720453	-0.218557	0.658165	-0.473261	-0.848656	0.236236						
04748														-5.938558	-2.382165	6.301260	0.503092	-0.492096	-0.710451	0.728445	-0.200898	0.654987	-0.465044	-0.847043	0.257395						
04749														-6.936799	-2.978614	7.308255	0.503438	-0.518005	-0.691535	0.737059	-0.160187	0.656570	-0.450881	-0.840245	0.301156						
04750														-7.089111	-3.195802	5.213793	0.513824	-0.557329	-0.652204	0.739584	-0.097484	0.665967	-0.434742	-0.824549	0.362102						
04751														-6.039600	-3.276052	2.915803	0.525271	-0.600496	-0.602905	0.741148	-0.025255	0.670867	-0.418079	-0.799229	0.431790						
04752														-5.309794	-4.479539	3.164902	0.522318	-0.644911	-0.557919	0.755375	0.046299	0.653655	-0.395718	-0.762854	0.511332						
04753														-5.495583	-7.221213	4.138330	0.509018	-0.688785	-0.516213	0.780080	0.115648	0.614898	-0.363834	-0.715682	0.596174						
04754														-6.224001	-8.901903	3.542641	0.501883	-0.727088	-0.468462	0.799397	0.183116	0.572218	-0.330270	-0.661673	0.673135						
04755														-6.864125	-8.811973	3.170606	0.502455	-0.760571	-0.411181	0.811916	0.251587	0.526779	-0.297205	-0.598528	0.743931						
04756														-6.788034	-9.447837	4.370939	0.512427	-0.787263	-0.342981	0.817505	0.324960	0.475486	-0.262878	-0.524040	0.810109						
04757														-6.450505	-10.089520	4.559648	0.536349	-0.800450	-0.267598	0.812416	0.403723	0.420700	-0.228714	-0.443043	0.866835						
04758														-6.246079	-10.417351	3.484042	0.564859	-0.802299	-0.193005	0.801927	0.478568	0.357612	-0.194546	-0.356776	0.913708						
04759														-5.495276	-10.583062	2.721228	0.598880	-0.791763	-0.120221	0.784145	0.549260	0.288842	-0.162662	-0.267252	0.949799						
04760														-5.254160	-11.216916	2.362146	0.631447	-0.773491	-0.054643	0.763626	0.608054	0.217130	-0.134722	-0.178833	0.974612						
04761														-4.745104	-11.376743	1.561172	0.664122	-0.747618	0.003167	0.738941	0.657045	0.149191	-0.113619	-0.096741	0.988803						
04762														-4.505665	-10.692960	0.927792	0.694320	-0.717693	0.053260	0.712947	0.696040	0.085058	-0.098117	-0.021086	0.994951						
04763														-4.056383	-10.515265	0.825447	0.718521	-0.688867	0.095867	0.690128	0.723267	0.024650	-0.086318	0.048449	0.995089						
04764														-4.068943	-10.308102	1.375063	0.736181	-0.663774	0.132068	0.672203	0.739808	-0.028759	-0.078616	0.109948	0.990823						
04765														-4.489750	-9.383632	1.412481	0.750601	-0.640212	0.163482	0.656402	0.750827	-0.073448	-0.075724	0.162440	0.983808						
04766														-4.664624	-8.511140	1.528863	0.763105	-0.617599	0.190372	0.641818	0.758749	-0.111214	-0.075759	0.207052	0.975392						
04767														-4.593782	-8.755265	2.058654	0.772688	-0.597651	0.213931	0.629956	0.763445	-0.142502	-0.078158	0.244877	0.966399						
04768														-5.120478	-8.942079	2.834327	0.775063	-0.585820	0.236838	0.626588	0.760966	-0.168283	-0.081642	0.278830	0.956864						
04769														-6.069139	-8.854529	2.847858	0.776576	-0.575044	0.257398	0.624056	0.758193	-0.188937	-0.086510	0.307355	0.947654						
04770														-6.123885	-8.761456	1.208638	0.779214	-0.564058	0.273247	0.619471	0.759397	-0.198926	-0.095297	0.324275	0.941150						
04771														-5.020218	-8.033558	0.227702	0.777069	-0.561495	0.284405	0.620186	0.760147	-0.193767	-0.107391	0.326955	0.938918						
04772														-4.570397	-7.466933	0.394827	0.764116	-0.575567	0.291290	0.634454	0.752167	-0.178082	-0.116600	0.320885	0.939913						
04773														-5.273252	-7.470068	1.469316	0.739683	-0.605092	0.294505	0.661699	0.733673	-0.154523	-0.122570	0.309171	0.943075						
04774														-6.154825	-8.912420	3.444141	0.711019	-0.640170	0.290920	0.691810	0.710929	-0.126407	-0.125902	0.291139	0.948360						
04775														-4.904699	-10.600446	3.157158	0.690886	-0.668527	0.275222	0.711518	0.696223	-0.094955	-0.128136	0.261428	0.956680						
04776														-3.635832	-10.934459	1.461669	0.673475	-0.695934	0.249212	0.727784	0.683293	-0.058656	-0.129465	0.220876	0.966671						
04777														-3.516238	-10.818287	1.625637	0.650542	-0.727288	0.218743	0.748143	0.663242	-0.019798	-0.130681	0.176530	0.975582						
04778														-3.044409	-11.287470	2.443573	0.612609	-0.768630	0.184167	0.779209	0.626369	0.022238	-0.132450	0.129881	0.982643						
04779														-3.314939	-12.661754	3.022719	0.571113	-0.809167	0.138125	0.810239	0.582673	0.063291	-0.131695	0.075768	0.988390						
04780														-3.720003	-13.411240	2.232288	0.536249	-0.840529	0.077126	0.833753	0.541721	0.106745	-0.131503	0.007062	0.991291						
04781														-3.447869	-12.696945	1.735034	0.513857	-0.857825	0.009365	0.846750	0.508915	0.154987	-0.137718	-0.071712	0.987872						
04782														-2.836977	-12.242378	2.420471	0.489347	-0.869921	-0.061456	0.859086	0.468728	0.205584	-0.150035	-0.153398	0.976708						
04783														-3.759267	-12.479913	3.436400	0.462780	-0.875638	-0.138178	0.871198	0.420434	0.253474	-0.163856	-0.237683	0.957423						
04784														-4.463164	-11.752633	3.211912	0.447570	-0.868100	-0.214670	0.875288	0.376098	0.304008	-0.183173	-0.323963	0.928168						
04785														-4.021936	-10.644206	3.025614	0.438394	-0.851742	-0.286961	0.873854	0.329251	0.357734	-0.210214	-0.407590	0.888639						
04786														-3.317192	-9.132715	4.026902	0.431581	-0.828676	-0.356418	0.869389	0.276704	0.409387	-0.240627	-0.486549	0.839862						
04787														-3.255233	-8.095237	4.601135	0.423556	-0.800235	-0.424529	0.865128	0.218371	0.451518	-0.268615	-0.558515	0.784798						
04788														-4.014039	-7.104753	5.109942	0.416002	-0.767099	-0.488365	0.860434	0.158252	0.484366	-0.294272	-0.621703	0.725871						
04789														-4.365017	-5.975163	5.004022	0.414314	-0.730582	-0.542765	0.852511	0.102698	0.512521	-0.318698	-0.675058	0.665379						
04790														-4.381851	-5.000144	4.668013	0.416885	-0.693314	-0.587812	0.842509	0.052019	0.536164	-0.341153	-0.718756	0.605809						
04791														-4.012425	-4.185863	4.277947	0.424727	-0.656481	-0.623409	0.830398	0.008203	0.557110	-0.360619	-0.754298	0.548625						
04792														-3.725054	-3.371319	3.906306	0.433716	-0.622477	-0.651470	0.818765	-0.029590	0.573366	-0.376184	-0.782079	0.496828						
04793														-3.718496	-3.064032	3.719474	0.440515	-0.593906	-0.673218	0.810031	-0.060347	0.583274	-0.387037	-0.802268	0.454498						
04794														-4.270929	-3.292746	4.013503	0.445921	-0.571581	-0.688803	0.803987	-0.082446	0.588904	-0.393395	-0.816393	0.422779						
04795														-4.852661	-3.830523	4.442189	0.452040	-0.556217	-0.697340	0.799598	-0.093821	0.593161	-0.395352	-0.825724	0.402339						
04796														-5.276590	-4.569750	4.606697	0.459938	-0.549362	-0.697609	0.796733	-0.091520	0.597362	-0.392013	-0.830557	0.395601						
04797														-5.628904	-5.137535	4.434669	0.468089	-0.551609	-0.690377	0.795611	-0.076925	0.600904	-0.384571	-0.830548	0.402859						
04798														-6.121235	-5.169017	4.232544	0.476899	-0.562715	-0.675218	0.794796	-0.051950	0.604650	-0.375323	-0.825017	0.422468						
04799														-6.642096	-5.242782	4.512122	0.486049	-0.582105	-0.651851	0.794075	-0.017329	0.607572	-0.364967	-0.812929	0.453813						
04800														-6.635309	-5.049210	4.637088	0.497810	-0.608245	-0.618242	0.792016	0.028348	0.609842	-0.353407	-0.793243	0.495852						
04801														-6.460668	-4.838145	3.885842	0.510842	-0.639846	-0.574140	0.789609	0.085138	0.607675	-0.339937	-0.763773	0.548720						
04802														-6.021018	-5.099087	3.295914	0.519671	-0.674230	-0.524743	0.790652	0.146785	0.594410	-0.323744	-0.723787	0.609361						
04803														-5.874338	-6.158079	3.427774	0.521988	-0.709277	-0.473766	0.797562	0.208976	0.565883	-0.302362	-0.673242	0.674776						
04804														-5.874522	-8.225602	3.659274	0.521911	-0.742753	-0.419436	0.806500	0.269547	0.526216	-0.277790	-0.612913	0.739710						
04805														-5.900771	-9.452823	3.420206	0.524309	-0.772003	-0.359322	0.813018	0.328381	0.480798	-0.253183	-0.544222	0.799825						
04806														-5.720971	-10.053148	3.089228	0.534146	-0.793088	-0.292743	0.814009	0.389022	0.431337	-0.228205	-0.468693	0.853376						
04807														-5.207996	-11.129713	2.987195	0.548391	-0.805698	-0.223870	0.811356	0.447861	0.375662	-0.202408	-0.387648	0.899311						
04808														-5.543572	-12.203492	3.232825	0.560645	-0.813472	-0.154724	0.808639	0.497630	0.313794	-0.178267	-0.301043	0.936800						
04809														-6.077433	-12.450145	3.603920	0.579797	-0.810445	-0.083754	0.799215	0.545736	0.251850	-0.158403	-0.212959	0.964135						
04810														-5.541231	-12.510942	3.387957	0.608284	-0.793599	-0.013827	0.780718	0.595089	0.190650	-0.143072	-0.126764	0.981561						
04811														-4.834279	-11.975262	3.012732	0.637414	-0.768969	0.048889	0.759099	0.637584	0.131360	-0.132182	-0.046619	0.990129						
04812														-4.942273	-10.719016	3.035446	0.660094	-0.744042	0.103333	0.740918	0.667548	0.073622	-0.123758	0.027964	0.991918						
04813														-5.458228	-9.791785	2.715082	0.678692	-0.718747	0.150930	0.724704	0.688739	0.021050	-0.119081	0.095093	0.988320						
04814														-5.808189	-8.550226	2.588556	0.695789	-0.692380	0.191018	0.708281	0.705574	-0.022456	-0.119229	0.150919	0.981330						
04815														-6.169184	-7.428660	2.829754	0.708432	-0.669442	0.223544	0.695343	0.716289	-0.058554	-0.120924	0.196922	0.972933						
04816														-6.290013	-6.931270	2.921486	0.721502	-0.646711	0.247388	0.681259	0.726895	-0.086660	-0.123781	0.231061	0.965033						
04817														-5.922914	-6.734179	2.306015	0.732365	-0.627559	0.264219	0.668934	0.735570	-0.107072	-0.127158	0.255161	0.958501						
04818														-5.564998	-6.504603	1.750710	0.737176	-0.617531	0.274276	0.663208	0.738952	-0.118765	-0.129336	0.269452	0.954289						
04819														-5.492015	-6.495344	1.677819	0.734573	-0.618684	0.278626	0.665917	0.736139	-0.121048	-0.130217	0.274461	0.952741						
04820														-5.647748	-6.929059	1.832315	0.725989	-0.629149	0.277689	0.675213	0.728723	-0.114236	-0.130487	0.270433	0.953855						
04821														-5.620703	-7.533212	1.798062	0.715739	-0.644226	0.269611	0.686032	0.720828	-0.098825	-0.130678	0.255695	0.957885						
04822														-5.352086	-8.519861	1.691600	0.701646	-0.665402	0.254821	0.700556	0.709512	-0.076256	-0.130058	0.232021	0.963977						
04823														-5.429866	-10.018516	2.199008	0.685920	-0.689400	0.232898	0.715919	0.696642	-0.046361	-0.130286	0.198536	0.971395						
04824														-5.008817	-11.369156	2.837763	0.671707	-0.712267	0.203681	0.728971	0.684464	-0.010474	-0.131952	0.155513	0.978981						
04825														-4.445233	-12.067250	2.521707	0.658460	-0.733826	0.167122	0.740374	0.671465	0.031307	-0.135190	0.103118	0.985439						
04826														-3.974445	-11.656448	2.022642	0.644919	-0.753993	0.124797	0.750952	0.655521	0.079772	-0.141955	0.042271	0.988970						
04827														-3.691140	-11.147779	2.644617	0.625659	-0.776064	0.079216	0.765415	0.630319	0.129762	-0.150635	-0.020553	0.988376						
04828														-3.712084	-12.207825	3.225532	0.601347	-0.798507	0.027718	0.783179	0.595961	0.177373	-0.158153	-0.084954	0.983753						
04829														-3.671908	-12.076618	3.234902	0.578270	-0.815261	-0.030870	0.798655	0.557953	0.225476	-0.166598	-0.155041	0.973760						
04830														-3.263669	-11.400890	3.021868	0.549233	-0.830502	-0.092787	0.817065	0.510387	0.268160	-0.175350	-0.223095	0.958896						
04831														-4.004831	-11.671240	3.899318	0.512617	-0.844007	-0.157722	0.838347	0.452321	0.304269	-0.185465	-0.288199	0.939438						
04832														-4.929284	-12.460138	4.501524	0.483477	-0.846280	-0.223741	0.852961	0.398009	0.337708	-0.196745	-0.354116	0.914272						
04833														-4.638977	-11.881278	3.457204	0.469028	-0.835721	-0.285629	0.857074	0.352645	0.375588	-0.213161	-0.420966	0.881675						
04834														-3.783272	-10.430741	2.502255	0.460991	-0.818177	-0.343618	0.855249	0.306334	0.417982	-0.236721	-0.486565	0.840963						
04835														-3.390689	-8.532732	3.163022	0.452361	-0.796622	-0.400952	0.852134	0.253434	0.457863	-0.263129	-0.548784	0.793473						
04836														-3.713459	-7.545211	4.071332	0.447634	-0.769460	-0.455582	0.846545	0.200519	0.493107	-0.288073	-0.606402	0.741141						
04837														-4.093340	-7.146389	4.326466	0.449454	-0.737518	-0.504041	0.837485	0.151561	0.525022	-0.310821	-0.658100	0.685780						
04838														-4.190018	-6.035584	3.898265	0.456503	-0.703622	-0.544537	0.824896	0.105375	0.555376	-0.333394	-0.702718	0.628519						
04839														-3.434428	-5.230553	3.959046	0.464362	-0.669261	-0.580050	0.811844	0.059919	0.580792	-0.353945	-0.740608	0.571159						
04840														-3.137533	-4.151606	4.603237	0.469565	-0.635220	-0.613192	0.801777	0.015995	0.597409	-0.369678	-0.772166	0.516815						
04841														-3.956578	-3.601448	5.249723	0.471679	-0.603060	-0.643302	0.796645	-0.021293	0.604073	-0.377990	-0.797412	0.470381						
04842														-4.863045	-3.237344	5.782723	0.476916	-0.575303	-0.664513	0.791352	-0.047969	0.609476	-0.382510	-0.816533	0.432390						
04843														-4.924405	-2.817017	5.474806	0.488832	-0.553979	-0.673907	0.782892	-0.062226	0.619038	-0.384869	-0.830202	0.403288						
04844														-4.533844	-2.231424	4.901948	0.501994	-0.540195	-0.675420	0.774320	-0.067166	0.629219	-0.385266	-0.838856	0.384567						
04845														-4.586739	-1.791326	4.668587	0.512865	-0.533967	-0.672197	0.768588	-0.063204	0.636614	-0.382416	-0.843140	0.377985						
04846														-5.053185	-1.695068	4.697814	0.521678	-0.535492	-0.664153	0.765123	-0.050721	0.641883	-0.377411	-0.843016	0.383257						
04847														-5.196215	-1.371809	4.749756	0.527007	-0.544752	-0.652310	0.765711	-0.028647	0.642547	-0.368716	-0.838108	0.402025						
04848														-5.677813	-1.998333	5.286000	0.527274	-0.561657	-0.637591	0.773112	0.005793	0.634243	-0.352534	-0.827350	0.437278						
04849														-7.000042	-3.294111	6.101353	0.525805	-0.587233	-0.615375	0.784066	0.054101	0.618315	-0.329803	-0.807608	0.488876						
04850														-7.803784	-4.481766	5.168744	0.532328	-0.619517	-0.576911	0.789466	0.117314	0.602479	-0.305566	-0.776168	0.551537						
04851														-7.279609	-5.699012	3.534251	0.542755	-0.654083	-0.526871	0.791120	0.187484	0.582219	-0.282039	-0.732820	0.619216						
04852														-6.235957	-7.017165	2.665207	0.548821	-0.689074	-0.473257	0.794164	0.253058	0.552509	-0.260958	-0.679072	0.686121						
04853														-5.622321	-8.362684	2.796380	0.551520	-0.721626	-0.418427	0.799149	0.313287	0.513043	-0.239137	-0.617339	0.749470						
04854														-5.382519	-10.615130	3.091684	0.553043	-0.749052	-0.364781	0.804928	0.367376	0.465968	-0.215023	-0.551323	0.806107						
04855														-5.339023	-10.717304	2.802281	0.559612	-0.768197	-0.310979	0.806127	0.417472	0.419377	-0.192339	-0.485377	0.852886						
04856														-5.799042	-10.404398	2.712887	0.571721	-0.780014	-0.254389	0.802562	0.467306	0.370837	-0.170381	-0.416178	0.893178						
04857														-5.924334	-11.109598	3.028587	0.591641	-0.782447	-0.194264	0.792153	0.519415	0.320472	-0.149849	-0.343491	0.927124						
04858														-6.069032	-11.321004	3.137779	0.618378	-0.774393	-0.133881	0.774313	0.571249	0.272237	-0.134338	-0.272011	0.952871						
04859														-5.728123	-10.811230	2.279043	0.651361	-0.754993	-0.075592	0.748746	0.623422	0.225219	-0.122913	-0.203298	0.971371						
04860														-5.028594	-10.194452	1.960183	0.682269	-0.730788	-0.021384	0.722183	0.669104	0.175362	-0.113844	-0.135087	0.984272						
04861														-4.620356	-9.768642	2.083889	0.707844	-0.705832	0.027511	0.698407	0.705167	0.122341	-0.105752	-0.067385	0.992107						
04862														-4.653583	-9.217205	2.221701	0.728061	-0.681763	0.071600	0.678291	0.731571	0.068736	-0.099242	-0.001478	0.995062						
04863														-4.761646	-8.898604	2.171002	0.746520	-0.655740	0.112750	0.658526	0.752394	0.015709	-0.095133	0.062522	0.993499						
04864														-4.574552	-8.280148	2.157234	0.762962	-0.628344	0.151899	0.639619	0.767825	-0.036516	-0.093687	0.125017	0.987721						
04865														-4.469333	-7.726668	1.813397	0.778501	-0.598957	0.187579	0.620588	0.779254	-0.087371	-0.093840	0.184428	0.978356						
04866														-4.192596	-8.066577	0.625454	0.789673	-0.573006	0.219271	0.606000	0.784281	-0.132915	-0.095809	0.237838	0.966568						
04867														-3.856921	-8.353206	-0.044429	0.793495	-0.556265	0.246848	0.600609	0.781214	-0.170218	-0.098155	0.283326	0.953987						
04868														-4.355435	-8.752833	0.058985	0.789769	-0.550577	0.270427	0.605370	0.770712	-0.198821	-0.098955	0.320731	0.941987						
04869														-5.786312	-9.203376	0.454322	0.785142	-0.548697	0.287199	0.611253	0.761143	-0.216867	-0.099605	0.345823	0.932998						
04870														-6.033319	-9.756468	0.610893	0.783109	-0.546667	0.296472	0.613313	0.757780	-0.222747	-0.102893	0.356265	0.928702						
04871														-5.595980	-9.901925	0.162650	0.778676	-0.550613	0.300814	0.618044	0.755727	-0.216558	-0.108094	0.354545	0.928770						
04872														-5.429193	-9.224037	-0.558930	0.770735	-0.562287	0.299667	0.626878	0.753332	-0.198782	-0.113977	0.341063	0.933105						
04873														-4.823820	-8.895773	-0.367117	0.754572	-0.585919	0.295498	0.645152	0.744723	-0.170784	-0.119999	0.319510	0.939954						
04874														-4.360445	-9.571259	0.880127	0.727093	-0.622864	0.288750	0.675148	0.725010	-0.136148	-0.124545	0.293941	0.947675						
04875														-4.500648	-10.844199	2.285297	0.693359	-0.666058	0.274991	0.709547	0.697623	-0.099325	-0.125684	0.263987	0.956302						
04876														-3.761505	-11.494128	2.047887	0.662222	-0.706468	0.249728	0.739089	0.670701	-0.062516	-0.123327	0.225971	0.966296						
04877														-3.184220	-11.500642	0.740367	0.634937	-0.742510	0.213384	0.763131	0.645816	-0.023504	-0.120355	0.177764	0.976686						
04878														-3.076110	-10.935769	0.585992	0.609571	-0.774121	0.170761	0.783604	0.621001	0.017967	-0.119952	0.122857	0.985149						
04879														-2.972099	-10.613462	1.099387	0.583351	-0.802763	0.123585	0.803021	0.592864	0.060578	-0.121899	0.063903	0.990483						
04880														-3.012403	-11.658682	2.052147	0.556625	-0.827845	0.069574	0.821260	0.560956	0.104214	-0.125301	-0.000870	0.992118						
04881														-2.797973	-12.731195	2.935495	0.535475	-0.844501	0.009191	0.834306	0.530638	0.149521	-0.131148	-0.072396	0.988716						
04882														-2.400771	-12.308817	2.382384	0.516436	-0.854731	-0.052247	0.844882	0.498643	0.193723	-0.139528	-0.144189	0.979664						
04883														-2.812560	-11.544910	1.886493	0.497345	-0.859817	-0.115596	0.854168	0.461990	0.238666	-0.151805	-0.217438	0.964197						
04884														-3.547752	-11.061123	2.250721	0.483761	-0.856279	-0.181002	0.858883	0.424730	0.286226	-0.168212	-0.293924	0.940911						
04885														-3.347125	-10.560340	2.736099	0.479182	-0.842995	-0.244428	0.856937	0.389094	0.338032	-0.189854	-0.371438	0.908840						
04886														-2.840945	-9.703081	2.949886	0.472492	-0.826493	-0.306041	0.854871	0.345331	0.387223	-0.214351	-0.444586	0.869711						
04887														-3.170377	-8.541485	3.473475	0.459635	-0.807976	-0.368661	0.855527	0.291418	0.427958	-0.238345	-0.512105	0.825191						
04888														-3.954658	-8.003812	4.221750	0.448764	-0.783597	-0.429636	0.854429	0.235361	0.463202	-0.261844	-0.574962	0.775149						
04889														-4.255537	-7.080042	4.584535	0.444175	-0.754154	-0.483695	0.848981	0.181798	0.496165	-0.286250	-0.631032	0.721013						
04890														-4.466837	-5.942997	4.745751	0.443101	-0.722580	-0.530604	0.841053	0.130195	0.525052	-0.310310	-0.678916	0.665417						
04891														-4.601792	-4.947870	5.026660	0.447722	-0.690277	-0.568386	0.829826	0.083984	0.551666	-0.333066	-0.718655	0.610411						
04892														-4.669277	-4.480688	5.133688	0.453058	-0.660079	-0.599195	0.818247	0.041113	0.573395	-0.353851	-0.750070	0.558734						
04893														-4.657065	-3.667704	5.196185	0.461009	-0.632939	-0.621980	0.804831	0.002988	0.593497	-0.373789	-0.774196	0.510787						
04894														-4.584662	-2.841982	5.081809	0.468408	-0.609966	-0.639168	0.792384	-0.029965	0.609287	-0.390797	-0.791861	0.469291						
04895														-4.716928	-2.329254	5.213752	0.474502	-0.592484	-0.651008	0.781922	-0.055968	0.620858	-0.404284	-0.803636	0.436719						
04896														-5.142171	-1.860205	5.522642	0.481151	-0.581329	-0.656163	0.772523	-0.072628	0.630820	-0.414370	-0.810421	0.414145						
04897														-5.568576	-1.640271	5.559094	0.486529	-0.578377	-0.654805	0.765113	-0.079758	0.638937	-0.421773	-0.811861	0.403719						
04898														-5.732855	-1.261441	5.726004	0.491893	-0.583878	-0.645854	0.758743	-0.076355	0.646899	-0.427025	-0.808243	0.405455						
04899														-5.575287	-0.956398	5.425369	0.496293	-0.596847	-0.630450	0.755209	-0.061372	0.652604	-0.428197	-0.800005	0.420286						
04900														-5.608279	-1.016122	5.132582	0.496933	-0.615534	-0.611699	0.757248	-0.036691	0.652096	-0.423831	-0.787256	0.447879						
04901														-6.078624	-2.017594	5.285385	0.492924	-0.638479	-0.591076	0.764957	-0.005670	0.644056	-0.414568	-0.769619	0.485614						
04902														-6.325894	-3.141731	5.541382	0.491015	-0.663442	-0.564578	0.772311	0.031678	0.634455	-0.403039	-0.747557	0.527938						
04903														-5.598221	-3.640452	5.022967	0.495740	-0.687223	-0.531005	0.776212	0.076367	0.625829	-0.389533	-0.722422	0.571289						
04904														-4.799835	-3.784127	4.673422	0.503256	-0.708014	-0.495428	0.780475	0.126313	0.612294	-0.370934	-0.694810	0.616155						
04905														-5.077136	-5.261916	5.690214	0.507531	-0.726951	-0.462553	0.790711	0.179668	0.585232	-0.342329	-0.662769	0.665995						
04906														-6.829425	-7.865454	6.701329	0.510806	-0.745836	-0.427559	0.802807	0.235918	0.547580	-0.307536	-0.622954	0.719270						
04907														-7.906353	-8.242946	5.040712	0.532506	-0.757706	-0.377252	0.799530	0.303982	0.518022	-0.277830	-0.577474	0.767681						
04908														-6.440059	-7.331807	1.766253	0.565967	-0.760691	-0.317854	0.783221	0.375744	0.495360	-0.257384	-0.529307	0.808448						
04909														-4.321939	-7.769529	1.073062	0.590208	-0.763134	-0.263212	0.772560	0.439415	0.458329	-0.234108	-0.473857	0.848913						
04910														-3.264619	-10.695865	2.265358	0.598204	-0.771220	-0.217649	0.775010	0.487742	0.401829	-0.203742	-0.409056	0.889473						
04911														-4.571540	-12.513170	2.858300	0.602760	-0.778452	-0.175195	0.778992	0.526557	0.340456	-0.172778	-0.341689	0.923795						
04912														-6.459743	-12.866860	2.123034	0.618503	-0.775195	-0.128555	0.772267	0.569462	0.281632	-0.145113	-0.273469	0.950872						
04913														-6.283861	-12.130933	0.928699	0.654516	-0.752405	-0.074133	0.745471	0.625904	0.229167	-0.126026	-0.205257	0.970560						
04914														-4.012492	-10.890849	-0.352001	0.696855	-0.716891	-0.021444	0.708118	0.682966	0.179239	-0.113849	-0.140089	0.983572						
04915														-2.514084	-9.965956	-0.418964	0.726341	-0.686945	0.023128	0.679705	0.722871	0.124332	-0.102128	-0.074587	0.991971						
04916														-2.612768	-9.487093	0.331435	0.743248	-0.666173	0.061613	0.663110	0.745766	0.064176	-0.088701	-0.006843	0.996035						
04917														-3.258044	-9.141667	0.718186	0.755138	-0.648620	0.095177	0.651197	0.758891	0.005138	-0.075562	0.058099	0.995447						
04918														-3.675717	-9.118036	0.786898	0.768248	-0.628082	0.123727	0.636934	0.769328	-0.049483	-0.064107	0.116821	0.991082						
04919														-3.651729	-9.358922	0.737470	0.784964	-0.601747	0.147420	0.617095	0.780533	-0.099813	-0.055004	0.169321	0.984025						
04920														-3.862467	-9.520006	0.680123	0.804388	-0.570362	0.166274	0.592114	0.792548	-0.145840	-0.048599	0.215765	0.975235						
04921														-4.286650	-9.609249	0.394966	0.826520	-0.533449	0.179716	0.561077	0.806444	-0.186657	-0.045359	0.255110	0.965848						
04922														-4.228787	-9.585968	-0.037181	0.849341	-0.493205	0.188068	0.525880	0.821361	-0.220945	-0.045500	0.286558	0.956982						
04923														-3.845472	-9.388314	-0.292357	0.867930	-0.457363	0.193694	0.494417	0.832800	-0.248991	-0.047429	0.311872	0.948940						
04924														-3.825403	-9.199595	-0.472465	0.880404	-0.430775	0.198296	0.471594	0.839282	-0.270564	-0.049874	0.331721	0.942058						
04925														-4.072396	-9.131432	-0.576066	0.887705	-0.413764	0.201941	0.457371	0.842827	-0.283643	-0.052840	0.344153	0.937425						
04926														-4.159298	-9.145151	-0.417605	0.889838	-0.406994	0.206264	0.452734	0.843788	-0.288191	-0.056751	0.349826	0.935094						
04927														-4.386799	-8.889001	-0.127643	0.888224	-0.408540	0.210127	0.455409	0.843226	-0.285610	-0.060501	0.349379	0.935026						
04928														-4.726925	-8.589526	-0.072177	0.883965	-0.416629	0.212193	0.463165	0.842326	-0.275619	-0.063905	0.341918	0.937554						
04929														-4.836040	-8.547235	-0.157860	0.877396	-0.430247	0.212280	0.474945	0.841499	-0.257501	-0.067844	0.326752	0.942672						
04930														-4.771571	-8.518519	-0.405804	0.866815	-0.451989	0.210564	0.493449	0.838287	-0.231913	-0.071691	0.304928	0.949673						
04931														-4.625293	-8.608842	-0.387637	0.851931	-0.481399	0.206078	0.518261	0.831455	-0.200221	-0.074959	0.277377	0.957833						
04932														-4.311308	-9.282359	-0.317155	0.833933	-0.515625	0.196689	0.546414	0.821446	-0.163276	-0.077380	0.243635	0.966775						
04933														-4.421514	-9.795236	-0.295064	0.814545	-0.551662	0.179403	0.574700	0.809504	-0.120098	-0.078974	0.200928	0.976417						
04934														-4.706098	-9.660060	0.018061	0.796001	-0.585007	0.155402	0.599643	0.797140	-0.070684	-0.082527	0.149450	0.985319						
04935														-4.663898	-9.343379	0.629266	0.777875	-0.615100	0.128692	0.621955	0.782854	-0.017642	-0.089895	0.093764	0.991528						
04936														-4.281336	-9.207788	1.539480	0.757841	-0.644690	0.100259	0.644788	0.763523	0.035787	-0.099621	0.037525	0.994318						
04937														-4.170933	-9.968937	1.910368	0.736682	-0.672877	0.067352	0.667357	0.739481	0.088335	-0.109244	-0.020127	0.993811						
04938														-4.059915	-10.533644	2.183808	0.714108	-0.699363	0.030676	0.689575	0.710309	0.141237	-0.120565	-0.079705	0.989500						
04939														-4.181724	-10.608260	3.237081	0.684149	-0.729320	-0.005628	0.716827	0.670967	0.189637	-0.134530	-0.133775	0.981838						
04940														-4.446704	-11.852461	3.862637	0.653386	-0.755820	-0.042704	0.742435	0.628750	0.231222	-0.147912	-0.182782	0.971963						
04941														-4.589879	-12.597036	2.997427	0.629979	-0.772122	-0.083399	0.759342	0.589885	0.274655	-0.162871	-0.236355	0.957919						
04942														-3.823656	-11.587514	2.112442	0.607525	-0.784505	-0.124363	0.772923	0.547802	0.320162	-0.183042	-0.290629	0.939165						
04943														-3.352024	-10.504840	2.830712	0.572643	-0.802294	-0.168539	0.793357	0.490533	0.360502	-0.206555	-0.340151	0.917405						
04944														-4.008832	-10.050531	4.226958	0.525930	-0.821245	-0.221257	0.819456	0.419599	0.390421	-0.227791	-0.386645	0.893654						
04945														-5.254954	-9.653930	5.520862	0.482371	-0.830721	-0.277885	0.840306	0.349237	0.414632	-0.247396	-0.433515	0.866522						
04946														-5.311932	-9.408536	5.315500	0.451688	-0.828331	-0.331429	0.850374	0.287338	0.440796	-0.269893	-0.480941	0.834179						
04947														-4.925620	-8.625557	4.894634	0.430877	-0.817524	-0.382099	0.852289	0.229515	0.470028	-0.296562	-0.528183	0.795659						
04948														-4.502843	-7.891663	4.886520	0.421009	-0.798279	-0.430698	0.846891	0.175891	0.501834	-0.324848	-0.576031	0.750108						
04949														-4.128325	-7.207823	5.096858	0.419714	-0.770930	-0.479069	0.836429	0.123557	0.533967	-0.352459	-0.624820	0.696687						
04950														-4.421540	-6.487535	5.029760	0.420544	-0.738280	-0.527338	0.824337	0.068153	0.561981	-0.378960	-0.671042	0.637253						
04951														-4.527238	-5.638394	5.050661	0.428827	-0.699735	-0.571382	0.807722	0.013717	0.589404	-0.404589	-0.714270	0.571074						
04952														-4.677714	-4.860547	5.189078	0.441845	-0.657297	-0.610519	0.787849	-0.041157	0.614492	-0.429030	-0.752507	0.499665						
04953														-4.793308	-3.678139	5.650481	0.457327	-0.612861	-0.644402	0.765627	-0.097289	0.635886	-0.452403	-0.784178	0.424730						
04954														-4.798658	-2.486555	6.039867	0.475323	-0.570134	-0.670085	0.742874	-0.147988	0.652869	-0.471388	-0.808113	0.353196						
04955														-4.689549	-1.798244	5.730729	0.493602	-0.531751	-0.688184	0.721243	-0.191879	0.665576	-0.485969	-0.824878	0.288810						
04956														-4.714951	-1.206787	5.485500	0.508956	-0.498820	-0.701529	0.702790	-0.229791	0.673262	-0.497042	-0.835688	0.233612						
04957														-4.627973	-0.279067	5.620455	0.520289	-0.472443	-0.711405	0.688706	-0.260444	0.676648	-0.504958	-0.842002	0.189868						
04958														-4.734639	0.130204	5.561470	0.529256	-0.453985	-0.716789	0.680351	-0.277701	0.678236	-0.506962	-0.846628	0.161895						
04959														-5.198154	-0.001583	5.510717	0.534051	-0.444176	-0.719373	0.678005	-0.283306	0.678268	-0.505073	-0.849968	0.149853						
04960														-5.246436	0.198443	5.691409	0.538925	-0.444787	-0.715349	0.675365	-0.279384	0.682515	-0.503431	-0.850946	0.149826						
04961														-4.880405	0.991772	5.228886	0.543202	-0.455966	-0.705001	0.675247	-0.261769	0.689578	-0.498972	-0.850630	0.165697						
04962														-4.853200	0.557530	4.855277	0.542846	-0.475205	-0.692458	0.683722	-0.228733	0.692968	-0.487690	-0.849624	0.200742						
04963														-5.134713	-0.803094	5.750269	0.537342	-0.500050	-0.679127	0.698754	-0.186925	0.690508	-0.472235	-0.845582	0.248969						
04964														-5.370517	-1.421136	6.339795	0.533129	-0.529839	-0.659579	0.712885	-0.138496	0.687469	-0.455597	-0.836714	0.303878						
04965														-5.459052	-1.754905	5.833620	0.530494	-0.564447	-0.632437	0.727403	-0.079979	0.681533	-0.435271	-0.821586	0.368152						
04966														-5.219286	-2.583540	5.319018	0.526994	-0.602963	-0.598927	0.743931	-0.013448	0.668121	-0.410906	-0.797656	0.441476						
04967														-5.391442	-4.533299	6.133746	0.519176	-0.643650	-0.562291	0.764087	0.054789	0.642782	-0.382920	-0.763356	0.520250						
04968														-5.535095	-5.183210	6.598718	0.517814	-0.681343	-0.517340	0.778538	0.124644	0.615095	-0.354607	-0.721274	0.594994						
04969														-6.070411	-5.037104	6.796517	0.522122	-0.717038	-0.461785	0.789604	0.201755	0.579500	-0.322355	-0.667197	0.671517						
04970														-6.386152	-6.858704	5.714704	0.524927	-0.753722	-0.395418	0.802637	0.283751	0.524651	-0.283241	-0.592780	0.753914						
04971														-6.645499	-10.112014	3.993816	0.531536	-0.782971	-0.323149	0.809698	0.357655	0.465266	-0.248715	-0.508959	0.824076						
04972														-5.059923	-10.850537	2.043901	0.559291	-0.791172	-0.247469	0.796412	0.429979	0.425260	-0.230047	-0.434931	0.870582						
04973														-4.247197	-10.059411	2.708836	0.582639	-0.793786	-0.174458	0.784544	0.493279	0.375721	-0.212185	-0.355779	0.910164						
04974														-3.342195	-11.651475	2.673398	0.598671	-0.793612	-0.108504	0.778301	0.544331	0.312972	-0.189316	-0.271816	0.943544						
04975														-4.722789	-11.931054	2.669269	0.612884	-0.788619	-0.049522	0.772068	0.584325	0.249950	-0.168178	-0.191425	0.966992						
04976														-5.899145	-11.763787	2.098221	0.633159	-0.773961	0.009687	0.759246	0.623458	0.186672	-0.150516	-0.110839	0.982375						
04977														-5.278132	-11.528630	0.837232	0.663737	-0.744892	0.067747	0.735144	0.666376	0.124522	-0.137900	-0.032846	0.989901						
04978														-4.324102	-11.116098	0.135712	0.694781	-0.709475	0.118000	0.707792	0.703608	0.062982	-0.127710	0.039760	0.991014						
04979														-3.864321	-11.037061	0.029397	0.721412	-0.674005	0.159004	0.682492	0.730891	0.001677	-0.117345	0.107309	0.987276						
04980														-3.765112	-10.881670	-0.295904	0.744341	-0.639575	0.192095	0.659008	0.750019	-0.056396	-0.108005	0.168570	0.979755						
04981														-3.409602	-10.340716	-1.375064	0.763243	-0.608408	0.217484	0.638172	0.762478	-0.106595	-0.100974	0.220150	0.970226						
04982														-3.540825	-9.615120	-1.480508	0.776241	-0.583979	0.237526	0.623094	0.767999	-0.148092	-0.095937	0.262956	0.960026						
04983														-4.348109	-9.090298	0.058777	0.783417	-0.566386	0.255860	0.614657	0.767000	-0.184142	-0.091950	0.301526	0.949014						
04984														-4.626602	-8.734029	1.012686	0.791596	-0.548371	0.269565	0.604531	0.767073	-0.214803	-0.088984	0.332998	0.938719						
04985														-4.524187	-8.200131	0.578020	0.799859	-0.532546	0.276805	0.593874	0.768970	-0.236639	-0.086834	0.353665	0.931333						
04986														-4.488265	-7.768428	0.284953	0.804600	-0.522741	0.281710	0.587669	0.769047	-0.251418	-0.085222	0.367843	0.925974						
04987														-4.493601	-7.643949	0.797832	0.804090	-0.521010	0.286333	0.588549	0.765637	-0.259634	-0.083955	0.377291	0.922282						
04988														-4.932329	-7.728772	1.318910	0.800577	-0.525539	0.287899	0.593505	0.761670	-0.260019	-0.082634	0.379034	0.921686						
04989														-5.137058	-8.166512	1.059902	0.796222	-0.534601	0.283253	0.599615	0.759652	-0.251776	-0.080574	0.370312	0.925406						
04990														-4.769033	-8.891128	0.570050	0.790120	-0.548907	0.272783	0.607942	0.758561	-0.234502	-0.078203	0.351121	0.933059						
04991														-4.626683	-9.628486	0.128525	0.779493	-0.570541	0.258599	0.621541	0.755825	-0.205951	-0.077952	0.321267	0.943775						
04992														-4.815056	-9.692244	0.557486	0.765635	-0.596537	0.240721	0.638123	0.751586	-0.167084	-0.081250	0.281535	0.956105						
04993														-5.001474	-10.435524	1.383069	0.748232	-0.626696	0.217719	0.657997	0.742940	-0.122806	-0.084790	0.235145	0.968255						
04994														-5.003888	-11.376425	1.950735	0.727579	-0.659883	0.187575	0.680230	0.729405	-0.072497	-0.088978	0.180341	0.979571						
04995														-4.565636	-11.255305	1.433886	0.705537	-0.692269	0.151599	0.701793	0.712250	-0.013668	-0.098514	0.116034	0.988348						
04996														-4.434957	-11.468656	1.604034	0.675985	-0.728403	0.111686	0.728356	0.683448	0.048959	-0.111993	0.048251	0.992537						
04997														-4.157789	-12.909390	2.623033	0.645738	-0.760860	0.064149	0.752865	0.648455	0.112695	-0.127343	-0.024476	0.991557						
04998														-4.030895	-13.262646	2.608496	0.616871	-0.787024	0.007918	0.773405	0.608001	0.179385	-0.145994	-0.104534	0.983747						
04999														-3.793681	-12.724093	2.169625	0.591179	-0.804692	-0.054583	0.788686	0.562605	0.247892	-0.168768	-0.189597	0.967249						
05000														-3.400162	-12.751820	2.359569	0.569653	-0.812574	-0.123366	0.799067	0.512439	0.314481	-0.192321	-0.277722	0.941214						
