// General information: 
//  MT Manager version: 2022.2.0 
//  XDA version: 2022.2.0 build 7381 rev 124627 built on 2023-07-19
// Device information: 
//  DeviceId: 00B4D4BE
//  ProductCode: MTW2-3A7G6
//  Firmware Version: 4.6.0
//  Hardware Version: 2.0.0
// Device settings: 
//  Filter Profile: human(46.1)
//  Option Flags: Orientation Smoother Disabled, Position/Velocity Smoother Disabled, Continuous Zero Rotation Update Disabled, AHS Disabled, ICC Disabled
// Coordinate system: ENU
PacketCounter	SampleTimeFine	Year	Month	Day	Second	UTC_Nano	UTC_Year	UTC_Month	UTC_Day	UTC_Hour	UTC_Minute	UTC_Second	UTC_Valid	Acc_X	Acc_Y	Acc_Z	Mat[1][1]	Mat[2][1]	Mat[3][1]	Mat[1][2]	Mat[2][2]	Mat[3][2]	Mat[1][3]	Mat[2][3]	Mat[3][3]	Latitude	Longitude	Altitude	Vel_E	Vel_N	Vel_U
04221														0.742304	-9.673639	-1.599454	0.999935	0.005240	-0.010104	-0.005244	0.999986	-0.000288	0.010102	0.000341	0.999949						
04222														0.700523	-9.655384	-1.537216	0.999941	0.005188	-0.009523	-0.005190	0.999987	-0.000137	0.009522	0.000187	0.999955						
04223														0.672235	-9.636516	-1.561716	0.999945	0.005293	-0.009001	-0.005293	0.999986	0.000018	0.009001	0.000030	0.999959						
04224														0.696969	-9.651494	-1.587320	0.999949	0.005434	-0.008517	-0.005432	0.999985	0.000203	0.008518	-0.000157	0.999964						
04225														0.704608	-9.629792	-1.585049	0.999955	0.005072	-0.007984	-0.005068	0.999987	0.000506	0.007986	-0.000466	0.999968						
04226														0.707999	-9.620463	-1.592941	0.999960	0.004836	-0.007463	-0.004830	0.999988	0.000812	0.007467	-0.000776	0.999972						
04227														0.677592	-9.630253	-1.547005	0.999965	0.004708	-0.006886	-0.004700	0.999988	0.001181	0.006891	-0.001149	0.999976						
04228														0.690270	-9.636634	-1.513540	0.999970	0.004479	-0.006305	-0.004469	0.999989	0.001507	0.006312	-0.001479	0.999979						
04229														0.801950	-9.626129	-1.601832	0.999977	0.003723	-0.005698	-0.003712	0.999991	0.001876	0.005705	-0.001854	0.999982						
04230														0.640242	-9.606111	-1.518470	0.999983	0.002734	-0.005088	-0.002723	0.999994	0.002231	0.005094	-0.002217	0.999985						
04231														0.687163	-9.642973	-1.499433	0.999987	0.002492	-0.004459	-0.002481	0.999994	0.002530	0.004465	-0.002519	0.999987						
04232														0.769425	-9.598786	-1.543406	0.999991	0.002022	-0.003858	-0.002011	0.999994	0.002802	0.003864	-0.002794	0.999989						
04233														0.810734	-9.555109	-1.535469	0.999993	0.001430	-0.003340	-0.001420	0.999995	0.002966	0.003344	-0.002961	0.999990						
04234														0.805085	-9.591719	-1.586255	0.999995	0.001121	-0.002984	-0.001112	0.999995	0.003103	0.002987	-0.003100	0.999991						
04235														0.778044	-9.634978	-1.629894	0.999996	0.000947	-0.002791	-0.000937	0.999994	0.003432	0.002794	-0.003429	0.999990						
04236														0.788581	-9.617160	-1.536618	0.999996	0.000949	-0.002629	-0.000939	0.999992	0.003759	0.002633	-0.003757	0.999989						
04237														0.747611	-9.649036	-1.472383	0.999997	0.000637	-0.002534	-0.000627	0.999991	0.004095	0.002537	-0.004094	0.999988						
04238														0.670765	-9.640952	-1.405137	0.999997	0.000861	-0.002446	-0.000851	0.999991	0.004230	0.002449	-0.004228	0.999988						
04239														0.700948	-9.643467	-1.449876	0.999996	0.001614	-0.002389	-0.001604	0.999990	0.004199	0.002396	-0.004195	0.999988						
04240														0.751921	-9.586865	-1.492336	0.999994	0.002449	-0.002294	-0.002440	0.999989	0.003975	0.002304	-0.003970	0.999989						
04241														0.774740	-9.641545	-1.512329	0.999993	0.003129	-0.002182	-0.003121	0.999989	0.003631	0.002194	-0.003624	0.999991						
04242														0.826778	-9.596630	-1.596438	0.999992	0.003521	-0.002046	-0.003514	0.999988	0.003312	0.002057	-0.003305	0.999992						
04243														0.762250	-9.627573	-1.581752	0.999993	0.003292	-0.001913	-0.003286	0.999990	0.003091	0.001923	-0.003085	0.999993						
04244														0.751794	-9.649141	-1.536872	0.999992	0.003452	-0.001844	-0.003447	0.999990	0.002959	0.001854	-0.002953	0.999994						
04245														0.776048	-9.639452	-1.515002	0.999994	0.003122	-0.001796	-0.003117	0.999991	0.002819	0.001805	-0.002814	0.999994						
04246														0.693151	-9.655477	-1.492293	0.999992	0.003633	-0.001849	-0.003628	0.999990	0.002623	0.001859	-0.002617	0.999995						
04247														0.830047	-9.631850	-1.550063	0.999989	0.004169	-0.001943	-0.004165	0.999988	0.002465	0.001953	-0.002457	0.999995						
04248														0.741287	-9.638858	-1.517839	0.999989	0.004320	-0.002072	-0.004316	0.999988	0.002364	0.002082	-0.002355	0.999995						
04249														0.761760	-9.613333	-1.575128	0.999988	0.004492	-0.002183	-0.004487	0.999987	0.002270	0.002193	-0.002260	0.999995						
04250														0.709134	-9.650779	-1.566011	0.999989	0.004098	-0.002209	-0.004093	0.999989	0.002258	0.002218	-0.002249	0.999995						
04251														0.722509	-9.666118	-1.554527	0.999989	0.004123	-0.002185	-0.004118	0.999989	0.002322	0.002195	-0.002313	0.999995						
04252														0.745320	-9.623300	-1.471303	0.999990	0.003972	-0.002140	-0.003967	0.999989	0.002350	0.002149	-0.002342	0.999995						
04253														0.728471	-9.638765	-1.465683	0.999989	0.004181	-0.002144	-0.004176	0.999989	0.002252	0.002153	-0.002243	0.999995						
04254														0.759597	-9.640806	-1.521884	0.999987	0.004563	-0.002129	-0.004559	0.999987	0.002096	0.002138	-0.002087	0.999996						
04255														0.739708	-9.606435	-1.537763	0.999987	0.004656	-0.002080	-0.004653	0.999987	0.001845	0.002089	-0.001835	0.999996						
04256														0.756890	-9.611643	-1.568159	0.999985	0.004971	-0.002081	-0.004968	0.999986	0.001536	0.002089	-0.001525	0.999997						
04257														0.732152	-9.639209	-1.556650	0.999985	0.005153	-0.002095	-0.005150	0.999986	0.001246	0.002101	-0.001236	0.999997						
04258														0.756551	-9.631973	-1.595177	0.999981	0.005792	-0.002120	-0.005789	0.999983	0.001049	0.002126	-0.001037	0.999997						
04259														0.701956	-9.607597	-1.576884	0.999979	0.006123	-0.002184	-0.006121	0.999981	0.000937	0.002189	-0.000924	0.999997						
04260														0.723804	-9.598120	-1.545669	0.999976	0.006584	-0.002167	-0.006583	0.999978	0.000729	0.002172	-0.000714	0.999997						
04261														0.798897	-9.679599	-1.634894	0.999974	0.006925	-0.002126	-0.006923	0.999976	0.000701	0.002131	-0.000686	0.999997						
04262														0.785838	-9.599713	-1.597083	0.999974	0.006860	-0.002039	-0.006859	0.999976	0.000815	0.002044	-0.000801	0.999998						
04263														0.723235	-9.619247	-1.558182	0.999975	0.006761	-0.002014	-0.006759	0.999977	0.000966	0.002020	-0.000952	0.999998						
04264														0.767735	-9.625072	-1.560075	0.999976	0.006581	-0.001948	-0.006579	0.999978	0.001088	0.001955	-0.001075	0.999998						
04265														0.746914	-9.622220	-1.562927	0.999978	0.006326	-0.001855	-0.006324	0.999979	0.001309	0.001863	-0.001297	0.999997						
04266														0.769380	-9.637312	-1.597386	0.999980	0.005986	-0.001801	-0.005983	0.999981	0.001595	0.001810	-0.001584	0.999997						
04267														0.753913	-9.691072	-1.519181	0.999983	0.005552	-0.001703	-0.005549	0.999983	0.001969	0.001714	-0.001960	0.999997						
04268														0.689041	-9.658671	-1.448572	0.999984	0.005437	-0.001625	-0.005433	0.999983	0.002256	0.001638	-0.002247	0.999996						
04269														0.702511	-9.581561	-1.434684	0.999983	0.005682	-0.001520	-0.005678	0.999981	0.002331	0.001533	-0.002323	0.999996						
04270														0.739893	-9.583267	-1.518640	0.999982	0.005886	-0.001367	-0.005883	0.999980	0.002219	0.001380	-0.002211	0.999997						
04271														0.752196	-9.665417	-1.598536	0.999978	0.006451	-0.001213	-0.006448	0.999977	0.002192	0.001227	-0.002184	0.999997						
04272														0.785762	-9.664876	-1.603400	0.999979	0.006451	-0.001009	-0.006449	0.999977	0.002290	0.001024	-0.002284	0.999997						
04273														0.788257	-9.621929	-1.572211	0.999981	0.006186	-0.000785	-0.006184	0.999978	0.002542	0.000801	-0.002537	0.999996						
04274														0.819739	-9.600429	-1.545219	0.999984	0.005583	-0.000632	-0.005581	0.999980	0.002822	0.000648	-0.002819	0.999996						
04275														0.816617	-9.643842	-1.554331	0.999987	0.004972	-0.000550	-0.004970	0.999983	0.003134	0.000566	-0.003132	0.999995						
04276														0.758172	-9.653932	-1.552779	0.999991	0.004242	-0.000382	-0.004241	0.999985	0.003454	0.000397	-0.003453	0.999994						
04277														0.737782	-9.629856	-1.534125	0.999995	0.003110	-0.000184	-0.003109	0.999988	0.003822	0.000196	-0.003821	0.999993						
04278														0.733619	-9.615808	-1.413783	0.999998	0.002124	-0.000034	-0.002124	0.999989	0.004085	0.000042	-0.004085	0.999992						
04279														0.834690	-9.602609	-1.414516	0.999999	0.001655	-0.000011	-0.001655	0.999990	0.004195	0.000018	-0.004195	0.999991						
04280														0.719592	-9.640717	-1.406721	0.999998	0.002113	-0.000152	-0.002112	0.999990	0.004064	0.000160	-0.004064	0.999992						
04281														0.819423	-9.663187	-1.520355	0.999996	0.002757	-0.000346	-0.002756	0.999989	0.003844	0.000357	-0.003843	0.999993						
04282														0.763977	-9.619948	-1.542229	0.999996	0.002905	-0.000526	-0.002904	0.999989	0.003667	0.000536	-0.003666	0.999993						
04283														0.767838	-9.650228	-1.573770	0.999996	0.002926	-0.000618	-0.002924	0.999989	0.003542	0.000628	-0.003541	0.999994						
04284														0.743155	-9.585479	-1.568823	0.999997	0.002493	-0.000706	-0.002490	0.999991	0.003545	0.000715	-0.003543	0.999993						
04285														0.683202	-9.599441	-1.451914	0.999997	0.002407	-0.000799	-0.002404	0.999991	0.003458	0.000807	-0.003456	0.999994						
04286														0.782876	-9.647736	-1.456660	0.999995	0.003088	-0.000951	-0.003085	0.999990	0.003230	0.000961	-0.003228	0.999994						
04287														0.771868	-9.634112	-1.550687	0.999992	0.003740	-0.001179	-0.003737	0.999989	0.002980	0.001190	-0.002975	0.999995						
04288														0.783512	-9.663724	-1.630841	0.999990	0.004369	-0.001371	-0.004365	0.999986	0.002833	0.001384	-0.002827	0.999995						
04289														0.768071	-9.624213	-1.574892	0.999990	0.004133	-0.001491	-0.004128	0.999987	0.002837	0.001503	-0.002830	0.999995						
04290														0.726912	-9.603577	-1.513304	0.999990	0.004062	-0.001652	-0.004058	0.999988	0.002806	0.001663	-0.002799	0.999995						
04291														0.778947	-9.651546	-1.604377	0.999990	0.004139	-0.001842	-0.004134	0.999987	0.002850	0.001853	-0.002842	0.999994						
04292														0.742672	-9.630733	-1.570490	0.999991	0.003877	-0.001985	-0.003871	0.999988	0.003016	0.001997	-0.003009	0.999993						
04293														0.785954	-9.658280	-1.591381	0.999991	0.003637	-0.002117	-0.003630	0.999988	0.003285	0.002129	-0.003277	0.999992						
04294														0.711768	-9.659887	-1.532786	0.999993	0.003052	-0.002202	-0.003044	0.999989	0.003666	0.002213	-0.003659	0.999991						
04295														0.720361	-9.623782	-1.478653	0.999995	0.002419	-0.002206	-0.002410	0.999989	0.003969	0.002216	-0.003963	0.999990						
04296														0.699473	-9.609060	-1.450652	0.999996	0.001846	-0.002215	-0.001836	0.999989	0.004224	0.002222	-0.004220	0.999989						
04297														0.735538	-9.620665	-1.512712	0.999996	0.001766	-0.002257	-0.001756	0.999989	0.004355	0.002265	-0.004351	0.999988						
04298														0.742639	-9.641742	-1.570423	0.999996	0.001534	-0.002258	-0.001524	0.999988	0.004573	0.002265	-0.004569	0.999987						
04299														0.717602	-9.679537	-1.534491	0.999997	0.001241	-0.002208	-0.001231	0.999988	0.004807	0.002214	-0.004804	0.999986						
04300														0.754186	-9.636384	-1.525754	0.999997	0.000822	-0.002121	-0.000811	0.999987	0.005091	0.002125	-0.005089	0.999985						
04301														0.712453	-9.628049	-1.482051	0.999998	0.000588	-0.002038	-0.000577	0.999986	0.005349	0.002042	-0.005348	0.999984						
04302														0.728142	-9.610089	-1.428541	0.999998	0.000605	-0.001999	-0.000594	0.999985	0.005455	0.002002	-0.005454	0.999983						
04303														0.723410	-9.634309	-1.469892	0.999998	0.000817	-0.001947	-0.000806	0.999985	0.005454	0.001952	-0.005453	0.999983						
04304														0.725557	-9.633971	-1.480768	0.999998	0.001075	-0.001872	-0.001065	0.999985	0.005388	0.001877	-0.005386	0.999984						
04305														0.745304	-9.639334	-1.518722	0.999997	0.001520	-0.001792	-0.001511	0.999985	0.005295	0.001800	-0.005292	0.999984						
04306														0.759835	-9.614120	-1.527612	0.999997	0.001610	-0.001660	-0.001601	0.999985	0.005205	0.001668	-0.005202	0.999985						
04307														0.767294	-9.622786	-1.548127	0.999997	0.001733	-0.001565	-0.001725	0.999985	0.005123	0.001574	-0.005120	0.999986						
04308														0.747314	-9.671888	-1.573148	0.999997	0.002002	-0.001507	-0.001994	0.999984	0.005241	0.001517	-0.005238	0.999985						
04309														0.761978	-9.641964	-1.480622	0.999997	0.002103	-0.001442	-0.002095	0.999983	0.005353	0.001453	-0.005350	0.999985						
04310														0.723706	-9.633200	-1.457629	0.999996	0.002352	-0.001351	-0.002344	0.999982	0.005480	0.001364	-0.005476	0.999984						
04311														0.748931	-9.604975	-1.472960	0.999996	0.002511	-0.001260	-0.002504	0.999982	0.005479	0.001274	-0.005476	0.999984						
04312														0.769647	-9.629228	-1.480827	0.999996	0.002731	-0.001179	-0.002725	0.999982	0.005402	0.001194	-0.005399	0.999985						
04313														0.744807	-9.668981	-1.498185	0.999996	0.002664	-0.001106	-0.002659	0.999983	0.005206	0.001120	-0.005203	0.999986						
04314														0.759309	-9.612737	-1.507513	0.999996	0.002704	-0.000927	-0.002699	0.999984	0.005055	0.000941	-0.005052	0.999987						
04315														0.758598	-9.612328	-1.500814	0.999997	0.002457	-0.000835	-0.002453	0.999985	0.004795	0.000847	-0.004793	0.999988						
04316														0.768254	-9.682381	-1.533077	0.999997	0.002452	-0.000700	-0.002448	0.999986	0.004600	0.000711	-0.004598	0.999989						
04317														0.769307	-9.641527	-1.554758	0.999997	0.002184	-0.000611	-0.002182	0.999988	0.004491	0.000621	-0.004489	0.999990						
04318														0.720267	-9.602378	-1.476212	0.999998	0.002090	-0.000521	-0.002087	0.999988	0.004342	0.000530	-0.004341	0.999990						
04319														0.730727	-9.651022	-1.497645	0.999997	0.002482	-0.000459	-0.002480	0.999988	0.004131	0.000469	-0.004130	0.999991						
04320														0.743317	-9.656657	-1.498431	0.999996	0.002832	-0.000394	-0.002831	0.999988	0.003927	0.000405	-0.003926	0.999992						
04321														0.773296	-9.644130	-1.456687	0.999996	0.002796	-0.000261	-0.002795	0.999990	0.003596	0.000271	-0.003595	0.999993						
04322														0.808199	-9.671408	-1.425999	0.999997	0.002592	-0.000228	-0.002591	0.999992	0.003097	0.000236	-0.003097	0.999995						
04323														0.859534	-9.561572	-1.460953	0.999997	0.002268	-0.000319	-0.002267	0.999994	0.002430	0.000324	-0.002429	0.999997						
04324														0.753874	-9.492914	-1.487397	0.999997	0.002269	-0.000580	-0.002268	0.999996	0.001539	0.000584	-0.001537	0.999999						
04325														0.803570	-9.534603	-1.479999	0.999996	0.002508	-0.000997	-0.002507	0.999997	0.000204	0.000997	-0.000202	0.999999						
04326														0.799044	-9.471756	-1.276887	0.999997	0.001709	-0.001459	-0.001712	0.999997	-0.001736	0.001456	0.001738	0.999997						
04327														0.626673	-9.611882	-1.165652	0.999995	0.002349	-0.002243	-0.002359	0.999987	-0.004555	0.002232	0.004560	0.999987						
04328														0.795921	-9.815163	-1.701744	0.999980	0.005385	-0.003379	-0.005409	0.999959	-0.007195	0.003340	0.007213	0.999968						
04329														0.980347	-9.572102	-1.765122	0.999953	0.008306	-0.004970	-0.008354	0.999919	-0.009607	0.004890	0.009648	0.999942						
04330														0.926118	-9.474494	-1.654638	0.999921	0.010459	-0.006978	-0.010542	0.999873	-0.011954	0.006852	0.012027	0.999904						
04331														0.543304	-9.770083	-1.453036	0.999841	0.015029	-0.009627	-0.015165	0.999784	-0.014238	0.009410	0.014382	0.999852						
04332														0.864566	-9.460727	-1.992393	0.999721	0.020271	-0.012108	-0.020470	0.999654	-0.016533	0.011769	0.016777	0.999790						
04333														1.707284	-8.466799	-3.573443	0.999608	0.024767	-0.013086	-0.025067	0.999416	-0.023214	0.012503	0.023533	0.999645						
04334														0.454993	-9.679150	-2.790363	0.999479	0.028697	-0.014783	-0.029142	0.999101	-0.030783	0.013886	0.031198	0.999417						
04335														1.135339	-9.979600	-2.408966	0.999325	0.032556	-0.016990	-0.033133	0.998843	-0.034868	0.015835	0.035407	0.999247						
04336														0.502135	-9.792642	-2.185537	0.999363	0.030147	-0.019108	-0.030828	0.998863	-0.036366	0.017990	0.036932	0.999156						
04337														0.359577	-9.748627	-1.695177	0.999327	0.029780	-0.021422	-0.030584	0.998800	-0.038241	0.020258	0.038870	0.999039						
04338														0.366746	-9.716683	-1.574838	0.999288	0.029637	-0.023366	-0.030580	0.998688	-0.041084	0.022118	0.041769	0.998882						
04339														0.343380	-9.317080	-2.176319	0.999250	0.029723	-0.024822	-0.030849	0.998452	-0.046281	0.023408	0.047012	0.998620						
04340														0.608862	-9.271395	-2.570962	0.999237	0.029693	-0.025376	-0.031036	0.998043	-0.054280	0.023715	0.055026	0.998203						
04341														0.364424	-9.389577	-2.542760	0.999305	0.028029	-0.024580	-0.029548	0.997524	-0.063813	0.022730	0.064494	0.997659						
04342														0.598670	-9.512825	-2.523514	0.999447	0.023969	-0.023069	-0.025607	0.996962	-0.073562	0.021236	0.074112	0.997024						
04343														0.420608	-9.267147	-2.267334	0.999632	0.017048	-0.021094	-0.018741	0.996388	-0.082824	0.019606	0.083189	0.996341						
04344														0.357463	-9.289586	-2.568623	0.999741	0.011397	-0.019684	-0.013152	0.995724	-0.091440	0.018558	0.091675	0.995616						
04345														0.646671	-9.521244	-3.092741	0.999741	0.011251	-0.019765	-0.013148	0.995038	-0.098624	0.018557	0.098858	0.994929						
04346														1.265343	-9.309901	-3.198932	0.999681	0.014107	-0.020935	-0.016226	0.994368	-0.104732	0.019340	0.105038	0.994280						
04347														0.925678	-9.115957	-2.848973	0.999603	0.016605	-0.022747	-0.019017	0.993720	-0.110268	0.020774	0.110657	0.993642						
04348														0.496043	-9.237025	-2.684091	0.999494	0.019395	-0.025213	-0.022179	0.993085	-0.115287	0.022803	0.115788	0.993012						
04349														0.448386	-9.515247	-2.771555	0.999351	0.022285	-0.028293	-0.025521	0.992479	-0.119728	0.025412	0.120372	0.992404						
04350														0.866491	-9.436702	-3.044272	0.999205	0.024516	-0.031437	-0.028236	0.991887	-0.123946	0.028144	0.124735	0.991791						
04351														1.036321	-9.279302	-3.121285	0.999078	0.025244	-0.034715	-0.029481	0.991397	-0.127530	0.031197	0.128436	0.991227						
04352														0.502387	-9.234146	-3.092630	0.998879	0.027210	-0.038745	-0.032043	0.990976	-0.130155	0.034854	0.131251	0.990736						
04353														0.690837	-8.958736	-3.662245	0.998554	0.031330	-0.043673	-0.036875	0.990487	-0.132574	0.039104	0.133993	0.990210						
04354														0.833512	-8.350664	-3.786565	0.998265	0.033596	-0.048353	-0.039931	0.989810	-0.136682	0.043268	0.138376	0.989434						
04355														0.680089	-8.315514	-3.560253	0.997899	0.036726	-0.053368	-0.043971	0.988943	-0.141629	0.047576	0.143678	0.988480						
04356														0.222770	-8.418898	-3.747484	0.997371	0.042106	-0.058979	-0.050365	0.987943	-0.146398	0.052103	0.148984	0.987466						
04357														0.508534	-8.958468	-4.129156	0.996770	0.047339	-0.064872	-0.056638	0.987068	-0.149965	0.056934	0.153155	0.986561						
04358														-0.406425	-9.720609	-3.888024	0.996435	0.047648	-0.069613	-0.057756	0.986803	-0.151275	0.061487	0.154757	0.986037						
04359														-0.325570	-10.087459	-3.839978	0.996157	0.048288	-0.073072	-0.058921	0.986750	-0.151169	0.064804	0.154894	0.985803						
04360														-0.264816	-10.226840	-3.144143	0.996341	0.043054	-0.073827	-0.053834	0.987084	-0.150889	0.066377	0.154312	0.985790						
04361														-1.002874	-10.317316	-2.150325	0.996598	0.038630	-0.072804	-0.049315	0.987270	-0.151216	0.066036	0.154292	0.985816						
04362														-0.996211	-9.818244	-1.771016	0.996877	0.035780	-0.070403	-0.046176	0.987290	-0.152075	0.064067	0.154851	0.985858						
04363														-1.028258	-9.482542	-2.051607	0.997038	0.036896	-0.067487	-0.046980	0.986870	-0.154532	0.060900	0.157245	0.985680						
04364														-0.247726	-9.279099	-2.658450	0.997167	0.040010	-0.063689	-0.049704	0.986066	-0.158753	0.056450	0.161469	0.985262						
04365														-0.308602	-9.032425	-2.686489	0.997324	0.043521	-0.058749	-0.052660	0.985009	-0.164269	0.050719	0.166923	0.984665						
04366														-0.198152	-8.694078	-2.385763	0.997603	0.045151	-0.052438	-0.053516	0.983814	-0.171017	0.043868	0.173413	0.983872						
04367														-0.176145	-8.640473	-2.563507	0.998000	0.044728	-0.044659	-0.052067	0.982348	-0.179669	0.035834	0.181635	0.982713						
04368														0.064711	-8.903893	-2.787939	0.998379	0.044370	-0.035639	-0.050369	0.980406	-0.190438	0.026491	0.191924	0.981052						
04369														0.508863	-8.856392	-2.978348	0.998851	0.041060	-0.024704	-0.045237	0.978036	-0.203467	0.015807	0.204351	0.978770						
04370														-0.105499	-8.569812	-2.629634	0.999384	0.033588	-0.010188	-0.035011	0.974502	-0.221631	0.002484	0.221852	0.975077						
04371														-1.289766	-8.796057	-1.383893	0.999582	0.028131	0.006697	-0.025611	0.968765	-0.246653	-0.013427	0.246378	0.969081						
04372														-1.092913	-9.555987	0.245031	0.999316	0.027554	0.024653	-0.019509	0.959379	-0.281444	-0.031407	0.280771	0.959261						
04373														-0.467428	-11.204296	0.209159	0.998681	0.031226	0.040769	-0.016216	0.945026	-0.326592	-0.048726	0.325500	0.944286						
04374														1.731174	-13.357852	-1.782040	0.997828	0.037868	0.053903	-0.014854	0.926528	-0.375933	-0.064179	0.374315	0.925078						
04375														2.604655	-13.920219	-3.137540	0.996731	0.037382	0.071621	-0.003475	0.905529	-0.424271	-0.080715	0.422635	0.902698						
04376														2.225125	-12.659166	-3.568911	0.994973	0.035769	0.093542	0.012756	0.881174	-0.472621	-0.099332	0.471438	0.876287						
04377														2.205209	-12.023357	-4.588059	0.993131	0.042494	0.109015	0.020822	0.852659	-0.522053	-0.115137	0.520737	0.845917						
04378														1.401778	-12.160500	-5.176289	0.990908	0.037038	0.129342	0.042575	0.825636	-0.562595	-0.127627	0.562986	0.816552						
04379														-0.125214	-9.886232	-6.141803	0.988563	0.036759	0.146259	0.057379	0.805219	-0.590196	-0.139465	0.591838	0.793900						
04380														1.332161	-6.409127	-8.862818	0.987384	0.047779	0.150966	0.055273	0.789426	-0.611352	-0.148386	0.611983	0.776826						
04381														2.593644	-7.000206	-4.509305	0.986248	0.042344	0.159753	0.066863	0.781755	-0.619991	-0.151141	0.622147	0.768173						
04382														0.056662	-6.863759	-3.488859	0.987026	0.039056	0.155737	0.065548	0.787438	-0.612898	-0.146571	0.615155	0.774662						
04383														1.005334	-5.107322	-4.409706	0.989935	0.047245	0.133408	0.041682	0.803498	-0.593847	-0.135249	0.593430	0.793441						
04384														2.406058	-6.410505	-4.825726	0.992572	0.053138	0.109443	0.017208	0.829207	-0.558677	-0.120438	0.556410	0.822133						
04385														1.974766	-6.568666	-5.801108	0.994801	0.056586	0.084673	-0.005744	0.861284	-0.508092	-0.101679	0.504964	0.857131						
04386														2.108567	-6.139644	-6.628910	0.996347	0.061336	0.059422	-0.028677	0.895709	-0.443716	-0.080441	0.440391	0.894195						
04387														2.538401	-5.896281	-6.948657	0.997225	0.064488	0.037204	-0.046205	0.927919	-0.369908	-0.058377	0.367162	0.928323						
04388														2.919239	-6.957475	-7.061001	0.997569	0.067799	0.016134	-0.060160	0.954598	-0.291761	-0.035182	0.290081	0.956355						
04389														3.299360	-7.518609	-7.609925	0.998024	0.062834	0.000610	-0.061291	0.975569	-0.210970	-0.013851	0.210516	0.977492						
04390														2.225691	-7.492547	-7.374180	0.998583	0.051943	-0.011603	-0.053024	0.989778	-0.132390	0.004608	0.132818	0.991130						
04391														2.056530	-7.301117	-7.103961	0.998906	0.041397	-0.021771	-0.042670	0.997184	-0.061664	0.019157	0.062525	0.997859						
04392														2.028894	-7.490494	-6.887035	0.999249	0.025985	-0.028758	-0.026069	0.999657	-0.002537	0.028682	0.003285	0.999583						
04393														1.397157	-6.653648	-6.233407	0.999372	0.004726	-0.035118	-0.003293	0.999163	0.040767	0.035281	-0.040626	0.998551						
04394														0.318919	-5.495991	-5.703514	0.998836	-0.018884	-0.044386	0.021670	0.997769	0.063145	0.043095	-0.064033	0.997017						
04395														-1.949625	-4.104014	-9.342348	0.998501	-0.021102	-0.050493	0.023733	0.998361	0.052081	0.049312	-0.053201	0.997366						
04396														-0.621207	-10.769528	0.136464	0.997350	-0.043936	-0.057994	0.044789	0.998905	0.013501	0.057337	-0.016062	0.998226						
04397														5.158494	-18.530291	0.206830	0.998168	0.030970	-0.051973	-0.031809	0.999375	-0.015397	0.051463	0.017022	0.998530						
04398														3.028672	-7.657894	-1.266769	0.997645	0.039577	-0.056025	-0.041642	0.998477	-0.036191	0.054507	0.038438	0.997773						
04399														2.951827	-8.294711	-5.654018	0.996737	0.046185	-0.066198	-0.050571	0.996525	-0.066190	0.062911	0.069322	0.995609						
04400														-1.058864	-9.002598	-5.293391	0.996626	0.038117	-0.072691	-0.045005	0.994402	-0.095602	0.068640	0.098551	0.992762						
04401														-2.135956	-10.113604	-3.908949	0.995829	0.042943	-0.080503	-0.052413	0.991453	-0.119471	0.074685	0.123192	0.989569						
04402														-1.504795	-9.816445	-3.628524	0.994794	0.053584	-0.086678	-0.065212	0.988364	-0.137422	0.078306	0.142360	0.986713						
04403														-1.180804	-9.208145	-3.580585	0.993641	0.065875	-0.091308	-0.079492	0.984778	-0.154575	0.079736	0.160851	0.983753						
04404														-0.213757	-9.645310	-3.743035	0.991995	0.081142	-0.096754	-0.096958	0.980323	-0.171946	0.080899	0.179951	0.980343						
04405														0.168292	-9.894256	-4.402840	0.990762	0.090959	-0.100579	-0.108578	0.976432	-0.186522	0.081243	0.195720	0.977289						
04406														0.100898	-9.461818	-4.809723	0.990360	0.093401	-0.102288	-0.112256	0.973822	-0.197658	0.081149	0.207235	0.974920						
04407														-0.223224	-9.091431	-5.401498	0.990437	0.092632	-0.102241	-0.112222	0.971995	-0.206477	0.080252	0.215976	0.973095						
04408														-0.176930	-9.131063	-5.034372	0.990648	0.091034	-0.101632	-0.111016	0.970828	-0.212529	0.079319	0.221824	0.971855						
04409														-0.368280	-9.148191	-4.599713	0.991123	0.087533	-0.100069	-0.107476	0.970574	-0.215488	0.078262	0.224330	0.971366						
04410														-0.403980	-8.939181	-4.374413	0.991640	0.083986	-0.097963	-0.103588	0.970823	-0.216269	0.076941	0.224608	0.971407						
04411														-0.108205	-8.908108	-4.294738	0.992031	0.081268	-0.096282	-0.100496	0.971294	-0.215613	0.075996	0.223571	0.971721						
04412														0.327092	-8.950303	-4.438005	0.992567	0.077002	-0.094238	-0.095751	0.972085	-0.214204	0.075114	0.221635	0.972232						
04413														-0.211482	-9.331934	-3.864792	0.993144	0.072371	-0.091796	-0.090484	0.973127	-0.211744	0.074005	0.218599	0.973004						
04414														-0.041202	-9.415831	-3.310818	0.994058	0.064291	-0.087833	-0.081509	0.974470	-0.209198	0.072141	0.215114	0.973921						
04415														-0.417475	-9.298646	-2.707856	0.995054	0.055120	-0.082637	-0.071327	0.975479	-0.208212	0.069134	0.213076	0.974587						
04416														-0.499171	-9.003284	-2.556776	0.995957	0.046067	-0.077126	-0.061319	0.976021	-0.208860	0.065655	0.212745	0.974900						
04417														-0.411163	-8.910254	-2.762477	0.996631	0.039705	-0.071763	-0.054110	0.975871	-0.211535	0.061632	0.214706	0.974732						
04418														-0.518017	-8.963251	-2.546056	0.997360	0.032387	-0.065001	-0.045791	0.975155	-0.216737	0.056366	0.219141	0.974064						
04419														-0.806972	-8.816288	-2.214288	0.997963	0.027617	-0.057510	-0.039891	0.973620	-0.224664	0.049788	0.226500	0.972738						
04420														-0.428830	-8.952714	-2.623222	0.998522	0.023943	-0.048796	-0.034794	0.971272	-0.235413	0.041757	0.236763	0.970670						
04421														-0.106553	-8.968953	-2.633998	0.999163	0.017019	-0.037201	-0.025760	0.968167	-0.248975	0.031779	0.249725	0.967795						
04422														-0.203262	-8.698741	-2.289106	0.999727	0.007522	-0.022125	-0.013151	0.963715	-0.266611	0.019317	0.266829	0.963550						
04423														-0.786734	-8.451120	-1.089664	0.999990	-0.002762	-0.003497	0.001624	0.956663	-0.291192	0.004149	0.291184	0.956658						
04424														-3.074835	-9.853331	0.718621	0.999827	-0.007336	0.017114	0.012504	0.945560	-0.325207	-0.013797	0.325365	0.945488						
04425														0.392389	-11.649289	-0.186431	0.999508	0.010404	0.029594	0.001259	0.929332	-0.369242	-0.031344	0.369098	0.928862						
04426														2.904896	-13.240634	-1.968371	0.998854	0.017383	0.044595	0.002891	0.908108	-0.418726	-0.047776	0.418375	0.907017						
04427														3.119109	-13.713407	-2.970315	0.997712	0.017217	0.065385	0.015481	0.883176	-0.468786	-0.065818	0.468726	0.880888						
04428														2.690526	-13.089909	-4.555873	0.996196	0.018306	0.085193	0.028499	0.855467	-0.517072	-0.082345	0.517533	0.851692						
04429														1.423992	-11.576954	-5.662240	0.994011	0.017231	0.107910	0.046246	0.828372	-0.558267	-0.099010	0.559914	0.822614						
04430														-0.691457	-10.092384	-7.104481	0.991480	0.018460	0.128947	0.061955	0.803946	-0.591466	-0.114585	0.594415	0.795953						
04431														-0.044547	-8.692512	-7.609539	0.989629	0.026655	0.141155	0.066979	0.783659	-0.617570	-0.127079	0.620619	0.773746						
04432														2.297470	-8.214020	-4.874433	0.988221	0.029250	0.150210	0.073092	0.772147	-0.631226	-0.134448	0.634771	0.760914						
04433														0.934086	-7.568664	-3.911663	0.988188	0.029010	0.150475	0.073278	0.772935	-0.630239	-0.134590	0.633821	0.761680						
04434														1.731233	-6.330171	-4.767641	0.989237	0.031251	0.142947	0.064513	0.783698	-0.617782	-0.131334	0.620355	0.773247						
04435														1.784725	-6.454046	-4.453552	0.990756	0.031547	0.131940	0.053255	0.804063	-0.592154	-0.124769	0.593706	0.794950						
04436														2.326728	-6.544269	-4.848120	0.992892	0.031558	0.114762	0.037622	0.831559	-0.554161	-0.112920	0.554539	0.824461						
04437														2.812141	-7.274306	-5.241634	0.994927	0.026013	0.097174	0.026540	0.863886	-0.502988	-0.097032	0.503015	0.858814						
04438														2.434139	-7.415260	-5.426178	0.996618	0.015719	0.080654	0.021442	0.897777	-0.439928	-0.079325	0.440170	0.894404						
04439														1.476458	-7.588153	-5.477688	0.997937	0.008965	0.063568	0.015190	0.929111	-0.369489	-0.062374	0.369692	0.927058						
04440														0.288025	-7.944393	-5.702732	0.998842	0.019362	0.044049	-0.005386	0.954698	-0.297527	-0.047814	0.296946	0.953697						
04441														1.328046	-7.935136	-6.853304	0.998445	0.050252	0.024131	-0.043498	0.973032	-0.226530	-0.034864	0.225128	0.973705						
04442														2.904958	-8.082198	-7.216585	0.997154	0.074723	0.010007	-0.072233	0.984954	-0.156997	-0.021588	0.155827	0.987548						
04443														2.598213	-7.855800	-6.860381	0.996645	0.081847	-0.000242	-0.081519	0.992384	-0.092353	-0.007319	0.092063	0.995726						
04444														2.203889	-7.002429	-7.048620	0.997257	0.073267	-0.010509	-0.073608	0.996603	-0.036948	0.007766	0.037620	0.999262						
04445														0.806478	-6.620235	-6.781632	0.998523	0.049107	-0.023237	-0.049000	0.998785	0.005174	0.023463	-0.004028	0.999717						
04446														-0.490881	-6.074035	-6.427399	0.998998	0.024062	-0.037741	-0.022875	0.999239	0.031580	0.038472	-0.030685	0.998788						
04447														-0.541214	-5.860927	-6.221494	0.998602	0.006794	-0.052415	-0.004648	0.999151	0.040944	0.052649	-0.040643	0.997786						
04448														-0.645128	-6.277230	-5.893501	0.997777	-0.005507	-0.066407	0.007645	0.999459	0.031996	0.066195	-0.032432	0.997279						
04449														-1.062307	-6.562173	-4.615283	0.997144	-0.018706	-0.073165	0.019044	0.999811	0.003932	0.073077	-0.005314	0.997312						
04450														-0.223282	-13.838552	3.332584	0.996654	0.029677	-0.076158	-0.031824	0.999125	-0.027124	0.075286	0.029457	0.996727						
04451														5.744064	-15.109780	-2.704395	0.995555	0.061640	-0.071205	-0.065718	0.996242	-0.056416	0.067460	0.060844	0.995865						
04452														3.284500	-7.144826	-5.426617	0.991770	0.102498	-0.076725	-0.109019	0.990288	-0.086279	0.067136	0.093933	0.993312						
04453														2.066383	-8.013645	-7.160712	0.992390	0.090897	-0.083067	-0.100308	0.988030	-0.117199	0.071419	0.124640	0.989628						
04454														-2.188988	-9.231125	-5.290004	0.991982	0.089004	-0.089726	-0.101139	0.984788	-0.141292	0.075786	0.149234	0.985893						
04455														-0.736478	-10.556099	-5.160244	0.991404	0.089123	-0.095789	-0.103593	0.981890	-0.158618	0.079918	0.167178	0.982682						
04456														-1.739052	-9.752828	-4.983339	0.990521	0.094287	-0.099887	-0.110443	0.979056	-0.171033	0.081669	0.180443	0.980189						
04457														-0.283307	-9.427305	-5.627683	0.989986	0.096969	-0.102586	-0.114404	0.976869	-0.180659	0.082695	0.190586	0.978181						
04458														-0.757131	-9.340783	-5.478573	0.989989	0.096117	-0.103357	-0.114190	0.975841	-0.186267	0.082956	0.196205	0.977048						
04459														-0.776827	-9.682500	-5.192842	0.989764	0.097711	-0.104019	-0.115915	0.975586	-0.186538	0.083252	0.196686	0.976926						
04460														-0.045516	-9.452849	-5.106960	0.989646	0.099341	-0.103597	-0.117096	0.976208	-0.182499	0.083002	0.192740	0.977733						
04461														-0.044914	-9.267266	-4.572546	0.990216	0.096089	-0.101189	-0.112841	0.977984	-0.175541	0.082094	0.185242	0.979258						
04462														-0.222692	-9.185964	-4.011411	0.990913	0.091501	-0.098586	-0.107065	0.980239	-0.166341	0.081418	0.175384	0.981128						
04463														0.285886	-9.248423	-3.542784	0.991474	0.087445	-0.096605	-0.101855	0.982487	-0.156029	0.081269	0.164538	0.983017						
04464														0.868294	-9.225478	-2.838784	0.992105	0.081849	-0.095022	-0.095150	0.984825	-0.145140	0.081701	0.153035	0.984838						
04465														0.419751	-9.001774	-2.611345	0.992727	0.075010	-0.094162	-0.087395	0.986962	-0.135162	0.082796	0.142408	0.986339						
04466														-0.580095	-9.254613	-2.291242	0.993193	0.068728	-0.094039	-0.080394	0.988704	-0.126493	0.084283	0.133192	0.987500						
04467														0.032102	-9.429034	-2.621650	0.993709	0.061038	-0.093900	-0.071994	0.990389	-0.118098	0.085789	0.124115	0.988552						
04468														-0.292443	-9.304234	-2.588683	0.994469	0.049562	-0.092600	-0.059762	0.992039	-0.110845	0.086370	0.115766	0.989514						
04469														-0.953053	-9.268041	-1.513282	0.994962	0.040946	-0.091512	-0.050532	0.993187	-0.105010	0.086588	0.109105	0.990252						
04470														-1.078404	-9.162928	-1.047084	0.995436	0.033823	-0.089240	-0.042900	0.993876	-0.101839	0.085249	0.105202	0.990790						
04471														-1.537892	-9.206837	-0.510971	0.996118	0.023751	-0.084761	-0.032471	0.994148	-0.103028	0.081818	0.105381	0.991060						
04472														-1.803308	-9.352337	-0.009061	0.996829	0.016630	-0.077813	-0.025092	0.993718	-0.109064	0.075511	0.110671	0.990984						
04473														-1.379718	-8.937912	0.461156	0.997640	0.010791	-0.067813	-0.019006	0.992386	-0.121693	0.065983	0.122695	0.990249						
04474														-1.606533	-9.136860	0.435002	0.998412	0.009393	-0.055547	-0.017157	0.989861	-0.140996	0.053660	0.141725	0.988451						
04475														-1.542315	-8.962863	-0.031735	0.999109	0.010861	-0.040782	-0.017507	0.985912	-0.166347	0.038400	0.166912	0.985224						
04476														-1.895058	-8.214017	0.199496	0.999642	0.013766	-0.022933	-0.018080	0.979615	-0.200070	0.019711	0.200413	0.979513						
04477														-2.251378	-9.219041	1.361801	0.999729	0.022879	-0.004290	-0.023233	0.969277	-0.244872	-0.001444	0.244906	0.969546						
04478														0.121401	-11.765881	-1.066480	0.999017	0.043616	0.007964	-0.039295	0.954206	-0.296560	-0.020534	0.295955	0.954981						
04479														3.724911	-14.483157	-2.656327	0.998376	0.053282	0.020155	-0.042836	0.935402	-0.350981	-0.037554	0.349547	0.936166						
04480														2.845114	-14.588304	-2.279615	0.998064	0.047033	0.040687	-0.026465	0.913260	-0.406516	-0.056277	0.404652	0.912737						
04481														2.516506	-14.328419	-2.269535	0.997033	0.041481	0.064849	-0.006723	0.886102	-0.463441	-0.076687	0.461630	0.883752						
04482														2.250630	-12.445030	-5.132789	0.995451	0.042384	0.085323	0.007595	0.857438	-0.514532	-0.094967	0.512840	0.853216						
04483														1.407026	-10.052815	-8.213649	0.993983	0.040635	0.101720	0.022563	0.832772	-0.553156	-0.107187	0.552123	0.826844						
04484														0.528146	-7.627185	-8.858272	0.992963	0.028275	0.115002	0.043740	0.814855	-0.578013	-0.110053	0.578975	0.807883						
04485														2.324249	-6.788721	-5.057549	0.992129	0.010704	0.124765	0.065234	0.806285	-0.587919	-0.106889	0.591430	0.799241						
04486														0.004150	-6.863850	-2.156196	0.991580	-0.011872	0.128950	0.084676	0.812843	-0.576295	-0.097974	0.582361	0.807005						
04487														0.423833	-5.798359	-3.984833	0.994155	-0.011851	0.107310	0.069413	0.831457	-0.551235	-0.082691	0.555462	0.827420						
04488														2.049351	-6.810256	-4.533491	0.996215	-0.011654	0.086136	0.054012	0.859423	-0.508405	-0.068102	0.511133	0.856799						
04489														1.968186	-7.020748	-5.292413	0.997784	-0.012237	0.065408	0.040346	0.892916	-0.448413	-0.052917	0.450058	0.891430						
04490														2.719466	-7.471356	-5.899107	0.998829	-0.015106	0.045964	0.031222	0.926982	-0.373805	-0.036961	0.374803	0.926368						
04491														2.285747	-7.748250	-6.108730	0.999296	-0.023143	0.029518	0.030695	0.956853	-0.288946	-0.021558	0.289649	0.956890						
04492														0.983549	-7.486783	-6.318262	0.999773	-0.019051	0.009527	0.020584	0.979147	-0.202108	-0.005478	0.202258	0.979317						
04493														1.361496	-8.264804	-6.477034	0.999923	0.001608	-0.012289	-0.003054	0.992940	-0.118581	0.012012	0.118609	0.992868						
04494														2.341288	-7.877529	-6.805952	0.999311	0.023315	-0.028890	-0.024507	0.998834	-0.041589	0.027887	0.042268	0.998717						
04495														2.819012	-7.413719	-6.424376	0.998808	0.030732	-0.037912	-0.029854	0.999278	0.023510	0.038607	-0.022350	0.999004						
04496														2.084847	-7.065216	-6.087125	0.998807	0.021045	-0.044056	-0.017776	0.997150	0.073322	0.045474	-0.072452	0.996335						
04497														0.483845	-6.110458	-5.114851	0.998600	0.006200	-0.052529	-0.000687	0.994543	0.104330	0.052889	-0.104148	0.993155						
04498														0.392857	-6.489038	-4.449102	0.998020	-0.007130	-0.062490	0.014314	0.993230	0.115280	0.061245	-0.115946	0.991365						
04499														-0.062968	-5.467145	-6.028105	0.997725	-0.009474	-0.066745	0.016087	0.994933	0.099241	0.065467	-0.100089	0.992822						
04500														0.696136	-10.270930	1.024333	0.997053	-0.034693	-0.068416	0.039364	0.996898	0.068153	0.065839	-0.070646	0.995326						
04501														-3.328093	-13.353830	3.720653	0.997495	-0.016037	-0.068893	0.019300	0.998710	0.046968	0.068051	-0.048180	0.996518						
04502														1.201012	-13.549882	0.265889	0.997269	0.032251	-0.066442	-0.031070	0.999342	0.018737	0.067002	-0.016621	0.997614						
04503														2.189366	-6.654103	-6.102257	0.994746	0.077487	-0.066908	-0.078538	0.996823	-0.013223	0.065671	0.018408	0.997672						
04504														2.821616	-9.103799	-5.921859	0.993484	0.087884	-0.072568	-0.091626	0.994540	-0.049950	0.067782	0.056273	0.996112						
04505														-0.230361	-9.506717	-4.191189	0.994115	0.077449	-0.075737	-0.083527	0.993233	-0.080687	0.068976	0.086539	0.993858						
04506														-1.792012	-10.343980	-3.792929	0.993195	0.084278	-0.080385	-0.092582	0.990060	-0.105877	0.070663	0.112599	0.991125						
04507														-0.557309	-9.413362	-4.146968	0.991284	0.100398	-0.085301	-0.110769	0.985684	-0.127114	0.071318	0.135455	0.988213						
04508														0.703467	-9.397571	-4.468122	0.989806	0.110811	-0.089470	-0.123079	0.981620	-0.145855	0.071663	0.155380	0.985252						
04509														-0.085747	-9.880404	-4.185706	0.989133	0.114301	-0.092475	-0.128128	0.978622	-0.160882	0.072109	0.170982	0.982632						
04510														-0.142076	-9.437470	-5.130103	0.988273	0.119194	-0.095440	-0.134304	0.975918	-0.171891	0.072653	0.182694	0.980482						
04511														-0.205630	-9.186158	-5.404936	0.988264	0.118499	-0.096397	-0.134424	0.974376	-0.180336	0.072557	0.191178	0.978870						
04512														-0.506160	-9.619553	-5.025120	0.988406	0.117203	-0.096524	-0.133501	0.973667	-0.184796	0.072324	0.195539	0.978025						
04513														-0.442340	-9.648394	-4.765819	0.988708	0.115577	-0.095385	-0.131719	0.973797	-0.185388	0.071459	0.195859	0.978025						
04514														-0.332246	-9.330138	-4.671851	0.989384	0.111980	-0.092624	-0.127447	0.974858	-0.182784	0.069827	0.192648	0.978780						
04515														0.133068	-9.244004	-4.063550	0.990218	0.107025	-0.089523	-0.121639	0.976467	-0.178091	0.068356	0.187238	0.979933						
04516														0.475776	-9.096797	-3.881654	0.991128	0.100873	-0.086548	-0.114604	0.978393	-0.172087	0.067319	0.180479	0.981273						
04517														0.142628	-9.369109	-3.429934	0.992213	0.092573	-0.083330	-0.105355	0.980643	-0.165045	0.066438	0.172539	0.982759						
04518														0.191673	-9.455798	-3.210737	0.993251	0.084083	-0.079892	-0.095888	0.982812	-0.157752	0.065255	0.164348	0.984242						
04519														-0.145851	-9.166503	-2.768256	0.994407	0.073976	-0.075388	-0.084740	0.984838	-0.151372	0.063047	0.156914	0.985598						
04520														-0.748856	-9.102812	-2.432141	0.995512	0.063583	-0.070096	-0.073297	0.986552	-0.146088	0.059865	0.150570	0.986785						
04521														-0.538820	-9.091367	-2.321459	0.996373	0.055217	-0.064739	-0.063963	0.987810	-0.141916	0.056113	0.145542	0.987759						
04522														-0.436687	-9.203144	-1.948565	0.997214	0.046263	-0.058511	-0.054061	0.988728	-0.139622	0.051392	0.142396	0.988475						
04523														-0.655797	-9.059272	-1.540253	0.997830	0.040378	-0.052014	-0.047314	0.989037	-0.139884	0.045796	0.142042	0.988801						
04524														-0.967559	-9.071448	-0.557452	0.998454	0.034152	-0.043863	-0.040166	0.988687	-0.144517	0.038432	0.146055	0.988530						
04525														-1.766901	-8.625719	1.327344	0.999036	0.028896	-0.033058	-0.033731	0.987092	-0.156561	0.028107	0.157525	0.987115						
04526														-2.347258	-8.356470	2.149766	0.999475	0.026632	-0.018435	-0.029518	0.983235	-0.179940	0.013334	0.180389	0.983505						
04527														-2.694964	-8.801397	2.612270	0.999622	0.027436	0.001478	-0.026467	0.975978	-0.216254	-0.007376	0.216133	0.976336						
04528														-1.586701	-9.566904	1.987322	0.999047	0.037212	0.022800	-0.029839	0.963684	-0.265374	-0.031848	0.264441	0.963876						
04529														0.664612	-11.508362	-0.087216	0.997930	0.049841	0.040638	-0.033962	0.945070	-0.325099	-0.054609	0.323046	0.944806						
04530														4.044838	-15.409647	-3.883272	0.996927	0.054090	0.056668	-0.027753	0.920309	-0.390206	-0.073259	0.387434	0.918982						
04531														3.563672	-15.804821	-4.508911	0.995898	0.041212	0.080558	-0.000720	0.893842	-0.448381	-0.090485	0.446483	0.890205						
04532														2.501875	-14.030154	-4.981335	0.994114	0.027929	0.104676	0.028423	0.865118	-0.500763	-0.104543	0.500790	0.859232						
04533														1.424526	-11.869713	-6.848972	0.991435	0.012383	0.130011	0.060509	0.838646	-0.541305	-0.115737	0.544536	0.830714						
04534														0.401933	-8.640752	-8.241470	0.989362	0.004470	0.145403	0.080328	0.816539	-0.571674	-0.121283	0.577272	0.807494						
04535														2.135777	-8.505416	-5.246326	0.988780	-0.005972	0.149262	0.093882	0.802051	-0.589830	-0.116193	0.597225	0.793613						
04536														0.546338	-6.910490	-3.730934	0.989825	-0.018566	0.141072	0.098890	0.802630	-0.588223	-0.102308	0.596188	0.796299						
04537														2.470134	-6.151646	-4.296180	0.992234	-0.027093	0.121399	0.092348	0.814293	-0.573061	-0.083329	0.579821	0.810471						
04538														3.016830	-6.176468	-4.438584	0.993461	-0.041861	0.106225	0.093072	0.835815	-0.541064	-0.066135	0.547413	0.834245						
04539														2.767798	-6.187273	-4.690961	0.994057	-0.057505	0.092438	0.095984	0.863609	-0.494942	-0.051368	0.500872	0.863995						
04540														2.576137	-6.398313	-5.173810	0.994217	-0.073337	0.078455	0.100346	0.894660	-0.435333	-0.038264	0.440688	0.896844						
04541														1.865281	-6.768266	-5.777421	0.994172	-0.088215	0.061969	0.104823	0.925273	-0.364530	-0.025181	0.368901	0.929127						
04542														0.803763	-7.320223	-5.540784	0.994830	-0.092936	0.040943	0.100804	0.952596	-0.287053	-0.012325	0.289696	0.957039						
04543														0.551577	-7.530634	-6.137552	0.997149	-0.074143	0.014034	0.075441	0.975333	-0.207448	0.001693	0.207915	0.978145						
04544														2.507874	-8.292129	-6.837141	0.998864	-0.046603	-0.009960	0.044934	0.990642	-0.128878	0.015873	0.128284	0.991610						
04545														2.540276	-7.795446	-6.640782	0.999208	-0.028744	-0.027529	0.027141	0.998009	-0.056935	0.029111	0.056143	0.997998						
04546														1.228144	-7.494747	-6.318652	0.999042	-0.015662	-0.040868	0.015729	0.999875	0.001322	0.040843	-0.001963	0.999164						
04547														0.982882	-7.302396	-5.740264	0.998695	0.001329	-0.051046	0.000883	0.999062	0.043286	0.051056	-0.043275	0.997758						
04548														1.431186	-6.718492	-5.674540	0.998148	0.017771	-0.058182	-0.013845	0.997643	0.067202	0.059239	-0.066272	0.996042						
04549														1.399333	-6.770418	-5.360955	0.997732	0.023286	-0.063152	-0.018705	0.997216	0.072180	0.064657	-0.070835	0.995390						
04550														0.585322	-5.889753	-6.769247	0.997428	0.029160	-0.065471	-0.025731	0.998283	0.052617	0.066893	-0.050797	0.996466						
04551														1.261255	-9.526896	-1.311446	0.997736	0.010919	-0.066356	-0.009787	0.999802	0.017353	0.066532	-0.016664	0.997645						
04552														-1.652305	-11.435069	1.565077	0.997569	0.015453	-0.067955	-0.015580	0.999878	-0.001339	0.067926	0.002395	0.997687						
04553														0.059474	-12.527584	0.816844	0.996625	0.037161	-0.073201	-0.039251	0.998856	-0.027320	0.072102	0.030101	0.996943						
04554														2.252462	-9.893255	-4.450154	0.994667	0.074386	-0.071441	-0.078156	0.995609	-0.051514	0.067296	0.056823	0.996114						
04555														2.584237	-7.562561	-5.993448	0.992892	0.091003	-0.076706	-0.097339	0.991753	-0.083369	0.068486	0.090243	0.993562						
04556														1.410252	-9.584944	-4.904635	0.992309	0.092787	-0.081931	-0.101583	0.988651	-0.110683	0.070731	0.118155	0.990473						
04557														-1.754841	-10.605478	-4.477593	0.992000	0.091710	-0.086748	-0.102659	0.985978	-0.131565	0.073466	0.139418	0.987505						
04558														-0.713607	-9.293018	-4.439366	0.990706	0.100090	-0.092109	-0.113073	0.982401	-0.148668	0.075608	0.157701	0.984588						
04559														-0.638829	-9.102069	-4.188169	0.989354	0.108544	-0.096943	-0.123544	0.978481	-0.165262	0.076918	0.175480	0.981474						
04560														-0.466303	-9.779272	-3.961528	0.988032	0.115698	-0.102017	-0.132676	0.974777	-0.179461	0.078680	0.190848	0.978461						
04561														-0.399771	-9.969583	-5.019728	0.987065	0.120929	-0.105253	-0.139317	0.971868	-0.189904	0.079327	0.202111	0.976145						
04562														-0.590670	-9.298777	-5.295259	0.987143	0.120044	-0.105538	-0.139037	0.970606	-0.196452	0.078853	0.208600	0.974817						
04563														-0.579677	-9.266997	-5.020203	0.987149	0.120449	-0.105021	-0.139606	0.969807	-0.199961	0.077765	0.212053	0.974159						
04564														-0.085875	-9.092424	-4.770230	0.987359	0.119789	-0.103794	-0.138788	0.969682	-0.201135	0.076554	0.212998	0.974049						
04565														0.029490	-9.271204	-4.178498	0.987895	0.116829	-0.102051	-0.135361	0.970556	-0.199243	0.075768	0.210645	0.974622						
04566														0.265979	-8.874493	-3.791155	0.988596	0.112276	-0.100356	-0.130291	0.971875	-0.196174	0.075508	0.207012	0.975420						
04567														-0.104503	-9.142359	-3.203833	0.989826	0.102777	-0.098391	-0.120397	0.973529	-0.194281	0.075819	0.204150	0.975999						
04568														-0.744537	-8.893666	-3.026955	0.990559	0.096818	-0.097047	-0.114129	0.974618	-0.192600	0.075937	0.201858	0.976467						
04569														-0.647002	-9.200529	-2.842134	0.991371	0.090843	-0.094507	-0.107711	0.975409	-0.192289	0.074715	0.200809	0.976777						
04570														-0.659281	-9.125402	-3.165691	0.992053	0.086841	-0.091049	-0.103118	0.975792	-0.192862	0.072097	0.200718	0.976992						
04571														-0.780538	-9.352183	-2.917434	0.992979	0.081602	-0.085642	-0.096987	0.976102	-0.194467	0.067727	0.201408	0.977163						
04572														-0.336089	-9.255346	-2.847485	0.993902	0.076834	-0.079089	-0.091163	0.976077	-0.197391	0.062030	0.203398	0.977129						
04573														-0.115043	-9.172230	-2.033709	0.995001	0.069722	-0.071503	-0.082937	0.975725	-0.202686	0.055635	0.207603	0.976630						
04574														-0.760500	-9.107839	-1.651775	0.995839	0.065122	-0.063751	-0.077240	0.974385	-0.211207	0.048364	0.215252	0.975360						
04575														-0.430427	-9.234232	-0.966646	0.996651	0.060088	-0.055465	-0.071087	0.971882	-0.224483	0.040417	0.227674	0.972898						
04576														-1.076104	-9.218368	-0.608206	0.997233	0.057811	-0.046735	-0.067499	0.967567	-0.243428	0.031147	0.245909	0.968792						
04577														-0.850016	-9.479005	-0.392781	0.997539	0.059203	-0.037561	-0.067162	0.960649	-0.269524	0.020127	0.271383	0.962261						
04578														-0.514650	-10.209140	-0.527231	0.997816	0.060260	-0.027067	-0.065644	0.950379	-0.304090	0.007399	0.305203	0.952259						
04579														-0.581112	-11.786600	-0.686464	0.997836	0.063772	-0.016033	-0.065367	0.935447	-0.347371	-0.007154	0.347667	0.937591						
04580														1.192181	-14.178920	-0.806085	0.997742	0.066979	-0.005074	-0.063462	0.915201	-0.397970	-0.022011	0.397393	0.917384						
04581														2.458350	-15.798531	-1.619764	0.997868	0.064333	0.010975	-0.052476	0.890919	-0.451120	-0.038800	0.449582	0.892396						
04582														2.927056	-14.117918	-4.584628	0.997969	0.057921	0.026506	-0.036775	0.863670	-0.502714	-0.052010	0.500718	0.864046						
04583														1.518307	-11.968668	-6.665403	0.997995	0.037990	0.050614	-0.004286	0.838513	-0.544865	-0.063140	0.543556	0.836995						
04584														-1.290837	-8.715061	-8.868514	0.996589	0.014314	0.081279	0.035063	0.818108	-0.573994	-0.074711	0.574886	0.814816						
04585														-1.737944	-6.542901	-7.688773	0.995102	0.005920	0.098675	0.054155	0.802436	-0.594276	-0.082699	0.596709	0.798185						
04586														0.874959	-6.769102	-3.840074	0.994905	0.007073	0.100566	0.055398	0.795070	-0.603982	-0.084229	0.606476	0.790628						
04587														1.598327	-6.619663	-4.361061	0.995985	0.012574	0.088635	0.043164	0.799950	-0.598512	-0.078429	0.599935	0.796196						
04588														1.682233	-5.159906	-4.201884	0.997014	0.013163	0.076084	0.033440	0.814553	-0.579124	-0.069598	0.579940	0.811681						
04589														1.188443	-5.357963	-4.272746	0.998015	0.012837	0.061650	0.022923	0.837770	-0.545541	-0.058652	0.545872	0.835813						
04590														1.618446	-5.673995	-4.489471	0.998940	0.014310	0.043753	0.009402	0.867003	-0.498213	-0.045064	0.498097	0.865950						
04591														2.881376	-6.589247	-4.887794	0.999547	0.013218	0.027047	-0.000062	0.899350	-0.437230	-0.030104	0.437030	0.898943						
04592														3.404610	-7.218197	-5.461244	0.999873	0.001937	0.015811	0.003925	0.932023	-0.362377	-0.015439	0.362393	0.931898						
04593														2.296133	-7.760563	-5.439618	0.999769	-0.020559	0.006239	0.021483	0.960520	-0.277379	-0.000290	0.277449	0.960740						
04594														0.503527	-8.365776	-5.502124	0.999165	-0.040341	-0.006431	0.038411	0.981374	-0.188227	0.013905	0.187823	0.982104						
04595														-0.514878	-8.813293	-5.792744	0.998793	-0.043799	-0.022215	0.041312	0.993908	-0.102174	0.026555	0.101133	0.994518						
04596														-0.153999	-8.569943	-6.021100	0.998932	-0.025353	-0.038621	0.024349	0.999359	-0.026246	0.039262	0.025278	0.998909						
04597														1.136820	-8.429156	-7.214858	0.998608	-0.003587	-0.052625	0.005381	0.999408	0.033981	0.052472	-0.034217	0.998036						
04598														1.249915	-7.558793	-7.293168	0.997997	0.005386	-0.063038	-0.000785	0.997347	0.072785	0.063263	-0.072589	0.995354						
04599														1.372811	-5.641133	-6.742102	0.997362	0.000385	-0.072582	0.005848	0.996309	0.085643	0.072348	-0.085841	0.993679						
04600														0.960132	-5.121977	-7.065088	0.996500	-0.016260	-0.081996	0.022402	0.996965	0.074559	0.080535	-0.076135	0.993840						
04601														0.045292	-7.634102	-3.637288	0.995896	-0.036923	-0.082632	0.040871	0.998076	0.046617	0.080752	-0.049803	0.995489						
04602														-4.268181	-13.371390	5.175716	0.996395	-0.014088	-0.083661	0.016685	0.999398	0.030422	0.083182	-0.031709	0.996030						
04603														7.288091	-16.320067	-1.824599	0.996247	0.031011	-0.080809	-0.030481	0.999505	0.007786	0.081010	-0.005294	0.996699						
04604														1.360082	-7.007382	-3.933468	0.994504	0.067529	-0.080015	-0.069269	0.997414	-0.019176	0.078514	0.024613	0.996609						
04605														2.708866	-8.322454	-5.602868	0.994262	0.062914	-0.086517	-0.067440	0.996448	-0.050422	0.083037	0.055967	0.994974						
04606														-2.962839	-9.728917	-4.753618	0.994248	0.056410	-0.091040	-0.063402	0.995103	-0.075826	0.086317	0.081162	0.992956						
04607														-0.697571	-10.119396	-4.551238	0.993289	0.064400	-0.096069	-0.073391	0.992938	-0.093204	0.089388	0.099629	0.991001						
04608														-0.543071	-9.606286	-3.647168	0.992592	0.071018	-0.098575	-0.081609	0.990803	-0.107933	0.090003	0.115178	0.989259						
04609														0.127004	-9.626275	-4.019301	0.991598	0.079165	-0.102306	-0.091405	0.988424	-0.121089	0.091536	0.129423	0.987355						
04610														-0.542329	-10.238417	-4.174802	0.991186	0.081142	-0.104724	-0.094598	0.986902	-0.130673	0.092749	0.139428	0.985879						
04611														-0.671286	-9.923642	-4.916910	0.991124	0.081072	-0.105357	-0.095154	0.986080	-0.136355	0.092836	0.145170	0.985042						
04612														-0.306414	-9.206192	-4.914696	0.991499	0.078106	-0.104061	-0.092249	0.986003	-0.138883	0.091757	0.147302	0.984826						
04613														-0.041232	-9.295861	-4.232353	0.992088	0.072559	-0.102456	-0.086450	0.986597	-0.138396	0.091040	0.146158	0.985063						
04614														0.052012	-9.602980	-3.845925	0.992525	0.067698	-0.101541	-0.081166	0.987519	-0.134979	0.091136	0.142212	0.985632						
04615														-0.125163	-9.258622	-3.234883	0.993085	0.061393	-0.100069	-0.074131	0.988870	-0.129001	0.091035	0.135527	0.986582						
04616														-0.412189	-9.082228	-2.906969	0.993462	0.057010	-0.098914	-0.068994	0.990091	-0.122306	0.090962	0.128331	0.987551						
04617														-0.382605	-9.181987	-3.165277	0.993813	0.053934	-0.097090	-0.065052	0.991204	-0.115252	0.090020	0.120854	0.988580						
04618														0.000003	-9.451974	-3.108087	0.994210	0.050382	-0.094907	-0.060517	0.992402	-0.107130	0.088788	0.112253	0.989705						
04619														0.456682	-9.603860	-3.056604	0.994753	0.043991	-0.092361	-0.053074	0.993739	-0.098313	0.087458	0.102699	0.990860						
04620														-0.017931	-9.494715	-2.247239	0.995425	0.034208	-0.089207	-0.042266	0.995038	-0.090069	0.085684	0.093428	0.991932						
04621														-1.348829	-8.980230	-0.608770	0.996124	0.022466	-0.085040	-0.029658	0.996000	-0.084282	0.082806	0.086478	0.992806						
04622														-2.675111	-8.571973	2.181482	0.996785	0.015246	-0.078653	-0.022030	0.996041	-0.086121	0.077029	0.087577	0.993175						
04623														-1.983456	-9.147539	1.991823	0.997427	0.015173	-0.070063	-0.022032	0.994923	-0.098197	0.068217	0.099488	0.992698						
04624														-1.444165	-9.293705	0.517433	0.998236	0.013023	-0.057919	-0.019774	0.992869	-0.117562	0.055975	0.118500	0.991375						
04625														-1.902658	-8.617013	0.305416	0.999112	0.007045	-0.041551	-0.013012	0.989326	-0.145139	0.040085	0.145550	0.988538						
04626														-2.899440	-8.812343	1.242176	0.999756	0.004765	-0.021580	-0.008640	0.983035	-0.183217	0.020341	0.183359	0.982836						
04627														-1.870301	-10.336362	1.610198	0.999889	0.014744	-0.001961	-0.014799	0.972881	-0.230832	-0.001496	0.230835	0.972992						
04628														1.219149	-11.773818	0.544326	0.999618	0.023441	0.014649	-0.018247	0.957664	-0.287309	-0.020764	0.286932	0.957726						
04629														2.670809	-13.490435	-1.680812	0.999234	0.021133	0.032950	-0.008265	0.936678	-0.350094	-0.038262	0.349554	0.936135						
04630														2.305732	-14.711974	-3.441404	0.998548	0.016282	0.051342	0.006382	0.910741	-0.412928	-0.053483	0.412656	0.909315						
04631														1.248618	-13.594753	-3.781948	0.997310	0.007371	0.072923	0.027847	0.882221	-0.470011	-0.067799	0.470777	0.879643						
04632														1.179740	-11.719723	-6.706854	0.996414	0.012558	0.083678	0.032915	0.853508	-0.520039	-0.077951	0.520928	0.850034						
04633														1.170201	-9.872660	-8.134113	0.995638	0.015814	0.091945	0.038419	0.828591	-0.558534	-0.085018	0.559630	0.824370						
04634														2.607539	-8.352182	-6.760534	0.995022	0.012499	0.098869	0.047834	0.810441	-0.583864	-0.087425	0.585687	0.805809						
04635														0.102215	-7.902046	-3.029738	0.994869	0.003832	0.101100	0.056721	0.806342	-0.588724	-0.083777	0.591437	0.801987						
04636														1.336435	-5.297182	-4.809340	0.996643	0.008782	0.081395	0.040048	0.814853	-0.578283	-0.071404	0.579601	0.811766						
04637														3.088274	-5.881588	-4.530634	0.997857	0.005220	0.065224	0.031526	0.835129	-0.549150	-0.057337	0.550030	0.833175						
04638														2.675191	-6.062595	-4.849998	0.998505	-0.006670	0.054255	0.033077	0.863925	-0.502534	-0.043520	0.503577	0.862854						
04639														2.174079	-6.801525	-5.215702	0.998881	-0.020944	0.042399	0.037515	0.896810	-0.440822	-0.028791	0.441919	0.896593						
04640														1.562232	-7.293328	-5.343014	0.999040	-0.033958	0.027671	0.041740	0.929621	-0.366145	-0.013290	0.366949	0.930146						
04641														0.794968	-7.802652	-5.786085	0.999242	-0.038063	0.008203	0.038825	0.958125	-0.283708	0.002940	0.283811	0.958876						
04642														0.499193	-8.458639	-6.001894	0.999554	-0.026840	-0.013068	0.023691	0.979554	-0.199781	0.018163	0.199383	0.979753						
04643														1.844844	-7.959960	-6.819506	0.999454	-0.004813	-0.032700	0.000845	0.992739	-0.120288	0.033041	0.120195	0.992200						
04644														2.362517	-7.536987	-7.332518	0.998884	0.005467	-0.046910	-0.007852	0.998677	-0.050815	0.046570	0.051127	0.997606						
04645														1.842762	-6.608319	-6.617978	0.998255	0.004527	-0.058874	-0.004518	0.999990	0.000279	0.058875	-0.000012	0.998265						
04646														2.799968	-5.497457	-6.874042	0.997392	-0.006857	-0.071842	0.009018	0.999515	0.029800	0.071603	-0.030370	0.996971						
04647														2.143133	-5.799047	-7.211570	0.995658	-0.037275	-0.085304	0.040467	0.998532	0.036006	0.083836	-0.039302	0.995704						
04648														-0.247927	-6.010807	-7.048866	0.992606	-0.075860	-0.094753	0.078181	0.996717	0.021023	0.092847	-0.028275	0.995279						
04649														-1.485892	-7.830069	-5.673017	0.990394	-0.099698	-0.095812	0.099238	0.995018	-0.009572	0.096288	-0.000028	0.995353						
04650														-4.647296	-12.527195	2.482336	0.988851	-0.114190	-0.095572	0.111778	0.993273	-0.030245	0.098382	0.019225	0.994963						
04651														4.310347	-15.460693	-0.921318	0.993915	-0.056738	-0.094412	0.051944	0.997270	-0.052490	0.097132	0.047267	0.994148						
04652														0.972196	-9.327787	-4.921866	0.995441	-0.031324	-0.090084	0.025143	0.997303	-0.068954	0.092001	0.066374	0.993544						
04653														-0.203879	-7.970808	-5.945334	0.995753	-0.016022	-0.090664	0.007912	0.995989	-0.089122	0.091728	0.088026	0.991886						
04654														-1.429996	-8.799948	-5.444110	0.996061	-0.005060	-0.088528	-0.004420	0.994297	-0.106557	0.088562	0.106529	0.990358						
04655														-2.070346	-9.938455	-4.001639	0.995946	0.019092	-0.087903	-0.029460	0.992552	-0.118205	0.084991	0.120316	0.989091						
04656														1.675204	-9.666099	-3.727369	0.994680	0.049658	-0.090257	-0.060857	0.990175	-0.125894	0.083118	0.130717	0.987929						
04657														4.682035	-9.088896	-3.653502	0.993651	0.062233	-0.093727	-0.074583	0.988085	-0.134632	0.084232	0.140767	0.986453						
04658														1.832831	-9.925207	-3.284814	0.993962	0.049596	-0.097877	-0.063561	0.987365	-0.145155	0.089441	0.150499	0.984556						
04659														-1.345859	-9.905756	-4.292324	0.994378	0.032642	-0.100735	-0.047910	0.987051	-0.153084	0.094434	0.157049	0.983065						
04660														-2.057847	-9.272730	-5.245750	0.994695	0.018974	-0.101103	-0.034763	0.987023	-0.156772	0.096816	0.159455	0.982446						
04661														-0.849114	-9.479512	-5.264803	0.995101	0.005880	-0.098688	-0.021371	0.987422	-0.156657	0.096525	0.157999	0.982710						
04662														0.038989	-9.753542	-4.517877	0.995523	-0.010512	-0.093929	-0.004042	0.988151	-0.153429	0.094429	0.153122	0.983685						
04663														0.030744	-9.683821	-3.581453	0.995642	-0.026386	-0.089449	0.012982	0.989015	-0.147247	0.092351	0.145444	0.985047						
04664														-0.441952	-9.289495	-2.822473	0.995511	-0.035963	-0.087548	0.023511	0.989968	-0.139321	0.091681	0.136637	0.986370						
04665														-0.445628	-9.008152	-3.048530	0.995444	-0.039507	-0.086782	0.027884	0.990953	-0.131284	0.091183	0.128266	0.987539						
04666														-0.270221	-9.303829	-2.919199	0.995363	-0.044764	-0.085134	0.034083	0.991818	-0.123023	0.089945	0.119551	0.988745						
04667														-0.077417	-9.399394	-3.039087	0.995285	-0.048902	-0.083768	0.039186	0.992714	-0.113946	0.088729	0.110127	0.989949						
04668														0.173566	-9.589308	-3.004360	0.995180	-0.052931	-0.082556	0.044183	0.993553	-0.104403	0.087550	0.100252	0.991103						
04669														0.208079	-9.448453	-2.707156	0.994933	-0.059647	-0.080937	0.051919	0.994175	-0.094450	0.086099	0.089769	0.992234						
04670														-1.187464	-8.596652	-0.928637	0.994538	-0.070380	-0.077079	0.063592	0.994156	-0.087238	0.082768	0.081860	0.993201						
04671														-3.024382	-8.147365	3.417198	0.994394	-0.078541	-0.070800	0.072035	0.993317	-0.090183	0.077410	0.084577	0.993405						
04672														-1.782293	-9.105460	2.496106	0.995160	-0.075834	-0.062504	0.069044	0.992133	-0.104431	0.069932	0.099610	0.992566						
04673														-1.292314	-8.639164	1.001348	0.995840	-0.075560	-0.050926	0.068542	0.989437	-0.127738	0.060039	0.123716	0.990500						
04674														-1.502317	-8.947454	0.289819	0.996106	-0.081176	-0.034400	0.074671	0.984234	-0.160333	0.046873	0.157140	0.986463						
04675														-3.382496	-9.359154	1.393571	0.996256	-0.085591	-0.012185	0.081354	0.975819	-0.202877	0.029255	0.201126	0.979128						
04676														-2.290638	-9.988385	2.742929	0.996954	-0.077341	0.010088	0.077324	0.963135	-0.257666	0.010212	0.257661	0.966181						
04677														1.276743	-13.246534	0.961615	0.997427	-0.066498	0.026783	0.071595	0.943091	-0.324737	-0.003665	0.325819	0.945425						
04678														3.597919	-16.183877	-2.833892	0.996306	-0.071445	0.047647	0.084464	0.915441	-0.393488	-0.015506	0.396059	0.918094						
04679														2.203247	-15.057657	-4.693318	0.994804	-0.074043	0.069875	0.097915	0.883828	-0.457450	-0.027887	0.461915	0.886486						
04680														1.468672	-14.050498	-4.834143	0.993413	-0.070369	0.090441	0.107060	0.851349	-0.513560	-0.040858	0.519860	0.853274						
04681														1.193843	-11.207837	-6.682888	0.992434	-0.061248	0.106413	0.110535	0.822998	-0.557187	-0.053451	0.564733	0.823541						
04682														1.209558	-8.139328	-8.404304	0.993242	-0.041457	0.108407	0.097881	0.801124	-0.590440	-0.062370	0.597060	0.799768						
04683														2.714150	-7.963189	-4.414070	0.993301	-0.035156	0.110078	0.094944	0.791291	-0.604024	-0.065869	0.610429	0.789328						
04684														-0.028642	-5.962006	-3.729970	0.994634	-0.029633	0.099126	0.083105	0.799520	-0.594862	-0.061626	0.599908	0.797692						
04685														1.963619	-5.342861	-4.274776	0.996833	-0.019311	0.077138	0.059928	0.820053	-0.569141	-0.052266	0.571962	0.818613						
04686														2.735697	-6.442594	-4.642815	0.997836	-0.019488	0.062799	0.049594	0.850155	-0.524192	-0.043173	0.526172	0.849282						
04687														1.847724	-6.690174	-4.658056	0.998401	-0.024480	0.050943	0.045346	0.884958	-0.463458	-0.033737	0.465027	0.884653						
04688														1.297728	-7.027144	-4.863251	0.999067	-0.025968	0.034512	0.037385	0.920084	-0.389933	-0.021628	0.390860	0.920196						
04689														1.127453	-7.430927	-5.075255	0.999640	-0.023175	0.013544	0.026208	0.951674	-0.305989	-0.005798	0.306234	0.951939						
04690														0.656591	-8.547512	-5.505205	0.999841	-0.015327	-0.009088	0.013016	0.976536	-0.214960	0.012170	0.214807	0.976581						
04691														0.555739	-9.179063	-5.900939	0.999578	-0.003049	-0.028904	-0.000463	0.992684	-0.120738	0.029061	0.120700	0.992264						
04692														0.641791	-8.476556	-6.549998	0.998868	0.016678	-0.044542	-0.018090	0.999340	-0.031488	0.043987	0.032258	0.998511						
04693														1.976853	-7.336443	-7.992638	0.997969	0.030431	-0.055961	-0.027913	0.998586	0.045246	0.057259	-0.043592	0.997407						
04694														1.511597	-7.116778	-8.545809	0.997822	0.011368	-0.064974	-0.004611	0.994648	0.103223	0.065799	-0.102699	0.992534						
04695														-2.596793	-6.556998	-6.703874	0.996943	-0.020982	-0.075265	0.030789	0.990824	0.131603	0.071813	-0.133518	0.988441						
04696														0.069187	-3.697305	-10.096116	0.996799	-0.019081	-0.077636	0.028178	0.992636	0.117816	0.074816	-0.119627	0.989996						
04697														0.625926	-7.715501	-4.152851	0.996276	-0.040685	-0.076017	0.046606	0.995878	0.077815	0.072538	-0.081068	0.994065						
04698														-4.067150	-16.344636	5.098510	0.997247	0.016091	-0.072384	-0.012539	0.998707	0.049264	0.073083	-0.048221	0.996159						
04699														8.300267	-11.288878	-2.216736	0.994550	0.081063	-0.065574	-0.079367	0.996450	0.028075	0.067617	-0.022717	0.997453						
04700														3.514784	-6.894533	-5.483143	0.991488	0.109294	-0.070753	-0.109910	0.993930	-0.004865	0.069792	0.012600	0.997482						
04701														2.762104	-9.174600	-4.389252	0.990853	0.109064	-0.079475	-0.112585	0.992786	-0.041249	0.074403	0.049819	0.995983						
04702														-1.095248	-9.741577	-3.796221	0.993075	0.082141	-0.083995	-0.088363	0.993391	-0.073252	0.077423	0.080166	0.993770						
04703														-3.579171	-10.677511	-4.146670	0.992099	0.086863	-0.090527	-0.095463	0.990846	-0.095449	0.081408	0.103337	0.991309						
04704														-1.469855	-9.250890	-5.007498	0.989746	0.105289	-0.096528	-0.116029	0.986753	-0.113381	0.083311	0.123419	0.988851						
04705														0.980586	-9.158661	-4.919693	0.987933	0.117718	-0.100653	-0.130307	0.983001	-0.129337	0.083717	0.140892	0.986479						
04706														-0.470204	-9.942491	-3.510862	0.987579	0.118099	-0.103636	-0.132196	0.981029	-0.141797	0.084924	0.153736	0.984456						
04707														-1.390512	-9.833110	-4.588835	0.985953	0.127442	-0.107959	-0.142808	0.978440	-0.149202	0.086616	0.162524	0.982896						
04708														-0.286206	-9.175411	-6.065884	0.984464	0.135676	-0.111459	-0.151852	0.976571	-0.152477	0.088160	0.167033	0.982002						
04709														0.035522	-9.606185	-6.345237	0.984285	0.136696	-0.111795	-0.152744	0.976735	-0.150527	0.088618	0.165238	0.982264						
04710														0.252001	-9.872190	-5.512884	0.984971	0.133181	-0.109976	-0.148284	0.978544	-0.143054	0.088564	0.157211	0.983586						
04711														1.300255	-9.968618	-4.335926	0.986380	0.124524	-0.107461	-0.138257	0.981619	-0.131564	0.089103	0.144629	0.985466						
04712														0.932890	-9.609112	-3.290955	0.988357	0.109851	-0.105275	-0.122145	0.985414	-0.118491	0.090723	0.129970	0.987359						
04713														-0.330200	-9.081081	-2.673231	0.989715	0.096906	-0.105235	-0.107957	0.988599	-0.104963	0.093864	0.115244	0.988893						
04714														-0.334824	-9.043793	-1.965447	0.990623	0.086292	-0.105925	-0.096146	0.991131	-0.091740	0.097070	0.101064	0.990133						
04715														-0.974459	-9.259491	-1.889424	0.991498	0.075056	-0.106295	-0.083706	0.993322	-0.079397	0.099626	0.087619	0.991160						
04716														-0.981369	-9.237779	-2.028900	0.991971	0.067662	-0.106840	-0.075170	0.994858	-0.067875	0.101698	0.075361	0.991957						
04717														-0.486367	-9.482494	-2.128912	0.992629	0.057714	-0.106571	-0.064063	0.996309	-0.057139	0.102880	0.063545	0.992662						
04718														-1.437677	-9.128970	-0.842315	0.993581	0.043983	-0.104220	-0.049279	0.997592	-0.048801	0.101823	0.053624	0.993356						
04719														-2.624168	-8.547441	2.747551	0.994489	0.033051	-0.099493	-0.037963	0.998131	-0.047885	0.097725	0.051398	0.993885						
04720														-2.382114	-8.876506	3.567316	0.995348	0.028233	-0.092112	-0.033683	0.997739	-0.058164	0.090261	0.060996	0.994049						
04721														-1.601283	-9.843375	1.126787	0.996294	0.026082	-0.081961	-0.032351	0.996574	-0.076114	0.079695	0.078483	0.993725						
04722														-1.370941	-8.694956	0.535009	0.997426	0.021576	-0.068373	-0.028403	0.994530	-0.100512	0.065831	0.102196	0.992584						
04723														-1.837311	-7.780019	0.677987	0.998504	0.017881	-0.051679	-0.024696	0.990619	-0.134403	0.048791	0.135478	0.989578						
04724														-3.014806	-8.332717	1.886740	0.999383	0.018093	-0.030102	-0.023208	0.983510	-0.179359	0.026360	0.179947	0.983323						
04725														-1.819065	-9.216565	1.866087	0.999351	0.034672	-0.009764	-0.035996	0.971240	-0.235368	0.001323	0.235566	0.971857						
04726														1.438695	-11.125744	-0.598029	0.998915	0.045926	0.007719	-0.041492	0.952943	-0.300297	-0.021147	0.299651	0.953814						
04727														3.521492	-14.152853	-3.967380	0.998115	0.058205	0.019482	-0.046958	0.928521	-0.368298	-0.039527	0.366689	0.929504						
04728														4.521625	-14.630721	-4.748442	0.997947	0.050697	0.039131	-0.028838	0.901294	-0.432246	-0.057182	0.430231	0.900906						
04729														3.234997	-13.597433	-5.106064	0.997278	0.036504	0.064066	-0.000344	0.871154	-0.491009	-0.073735	0.489651	0.868795						
04730														0.965471	-12.169527	-6.377613	0.995907	0.026600	0.086380	0.024289	0.841791	-0.539258	-0.087058	0.539148	0.837699						
04731														0.253798	-9.996117	-8.962826	0.994446	0.020358	0.103256	0.042742	0.818437	-0.573004	-0.096174	0.574236	0.813022						
04732														0.959954	-7.039885	-9.210947	0.993482	0.018338	0.112503	0.052868	0.800272	-0.597302	-0.100986	0.599356	0.794087						
04733														2.708716	-6.163609	-6.011951	0.992897	0.006292	0.118807	0.067544	0.792257	-0.606438	-0.097941	0.610155	0.786205						
04734														-0.157472	-6.535614	-3.209392	0.993286	-0.009341	0.115303	0.076660	0.799600	-0.595619	-0.086632	0.600460	0.794948						
04735														0.921264	-5.278941	-4.664110	0.995965	-0.007334	0.089441	0.057335	0.818725	-0.571316	-0.069038	0.574139	0.815842						
04736														2.347841	-6.178410	-4.312676	0.997937	-0.006484	0.063874	0.039482	0.846507	-0.530912	-0.050627	0.532339	0.845016						
04737														2.940571	-6.380529	-4.785615	0.999183	-0.008385	0.039546	0.026187	0.879506	-0.475167	-0.030797	0.475815	0.879006						
04738														3.112478	-7.339741	-5.279704	0.999644	-0.018268	0.019453	0.024586	0.913904	-0.405185	-0.010376	0.405519	0.914028						
04739														2.127047	-7.541767	-5.547309	0.999433	-0.033562	0.002683	0.032625	0.945661	-0.323514	0.008321	0.323418	0.946219						
04740														0.720482	-7.764320	-5.731016	0.999008	-0.040712	-0.018031	0.035252	0.970566	-0.238241	0.027199	0.237369	0.971039						
04741														-0.104402	-7.985463	-6.298197	0.998754	-0.026893	-0.042029	0.020014	0.987512	-0.156267	0.045706	0.155231	0.986820						
04742														1.616601	-7.199773	-7.307171	0.998098	-0.002891	-0.061574	-0.002321	0.996428	-0.084411	0.061598	0.084393	0.994527						
04743														2.409398	-6.666578	-7.270443	0.997454	0.003051	-0.071244	-0.005221	0.999527	-0.030295	0.071118	0.030590	0.996999						
04744														1.753473	-5.773191	-7.003350	0.997100	-0.013489	-0.074898	0.013633	0.999906	0.001415	0.074872	-0.002432	0.997190						
04745														-0.035506	-4.470072	-6.103504	0.996138	-0.039446	-0.078447	0.040606	0.999087	0.013247	0.077853	-0.016382	0.996830						
04746														-3.666728	-4.907235	-7.045308	0.995786	-0.042324	-0.081354	0.043045	0.999048	0.007133	0.080974	-0.010605	0.996660						
04747														-4.399159	-9.798270	-1.609462	0.994964	-0.044625	-0.089747	0.043169	0.998904	-0.018109	0.090457	0.014143	0.995800						
04748														8.374153	-20.251520	-3.443255	0.996017	0.018938	-0.087133	-0.022824	0.998779	-0.043817	0.086197	0.045631	0.995233						
04749														0.249868	-7.140578	-3.686003	0.996517	0.024732	-0.079635	-0.029595	0.997730	-0.060482	0.077958	0.062628	0.994988						
04750														2.555132	-7.757016	-4.632992	0.995569	0.037941	-0.086042	-0.044980	0.995666	-0.081405	0.082580	0.084914	0.992960						
04751														0.509438	-9.829654	-5.298304	0.995290	0.038619	-0.088918	-0.047479	0.993876	-0.099782	0.084520	0.103534	0.991028						
04752														0.762735	-10.225245	-4.332978	0.994961	0.034730	-0.094053	-0.045378	0.992495	-0.113552	0.089403	0.117247	0.989070						
04753														-1.785747	-9.715243	-3.876170	0.994872	0.029373	-0.096779	-0.041236	0.991555	-0.122954	0.092350	0.126314	0.987682						
04754														-0.629586	-9.295793	-3.674766	0.994206	0.035470	-0.101472	-0.048619	0.990295	-0.130199	0.095869	0.134378	0.986282						
04755														-0.458119	-9.904944	-4.264764	0.993955	0.035855	-0.103771	-0.049864	0.989490	-0.135728	0.097814	0.140082	0.985297						
04756														-1.384513	-9.821918	-4.855856	0.993860	0.036837	-0.104334	-0.051061	0.989237	-0.137124	0.098160	0.141609	0.985044						
04757														-0.473587	-9.845531	-4.818219	0.993871	0.037956	-0.103828	-0.051817	0.989592	-0.134246	0.097652	0.138803	0.985494						
04758														0.257916	-9.682144	-4.499607	0.994083	0.037401	-0.101981	-0.050404	0.990484	-0.128065	0.096221	0.132448	0.986509						
04759														0.512476	-9.670730	-3.740054	0.994172	0.036328	-0.101501	-0.048412	0.991683	-0.119250	0.096324	0.123469	0.987662						
04760														0.348015	-9.463718	-3.390097	0.994092	0.036215	-0.102318	-0.047284	0.993035	-0.107918	0.097697	0.112118	0.988881						
04761														0.229993	-8.965521	-3.176921	0.994036	0.034611	-0.103417	-0.044593	0.994399	-0.095823	0.099521	0.099863	0.990012						
04762														-0.158030	-9.196899	-3.328847	0.994088	0.029720	-0.104428	-0.038426	0.995861	-0.082368	0.101548	0.085894	0.991116						
04763														0.091419	-9.541854	-3.800443	0.994078	0.023489	-0.106099	-0.030665	0.997314	-0.066516	0.104252	0.069376	0.992128						
04764														0.048962	-9.309646	-3.371983	0.994052	0.015354	-0.107815	-0.020691	0.998606	-0.048558	0.106920	0.050500	0.992984						
04765														-1.696812	-7.868432	1.193231	0.994275	-0.003983	-0.106777	0.000336	0.999416	-0.034158	0.106851	0.033926	0.993696						
04766														-3.083408	-8.667768	5.279821	0.994553	-0.006464	-0.104035	0.003047	0.999452	-0.032970	0.104191	0.032473	0.994027						
04767														-3.047004	-9.912985	3.659074	0.995139	-0.011284	-0.097828	0.007220	0.999100	-0.041805	0.098212	0.040895	0.994325						
04768														-1.005840	-10.231577	-0.626910	0.995970	-0.011305	-0.088967	0.006477	0.998500	-0.054370	0.089448	0.053574	0.994550						
04769														-0.202839	-9.617337	-2.700553	0.996937	-0.015442	-0.076669	0.010063	0.997492	-0.070059	0.077559	0.069073	0.994592						
04770														-0.823447	-9.153346	-2.619582	0.997845	-0.021589	-0.061959	0.016102	0.996014	-0.087735	0.063606	0.086548	0.994215						
04771														-1.048424	-8.413241	-1.276156	0.998546	-0.029637	-0.045038	0.024675	0.993955	-0.106981	0.047937	0.105714	0.993240						
04772														-1.071637	-7.947533	0.070337	0.998887	-0.039473	-0.025809	0.035746	0.990651	-0.131657	0.030765	0.130588	0.990959						
04773														-2.004688	-9.355164	0.541597	0.998717	-0.050538	-0.003204	0.049329	0.985231	-0.163971	0.011443	0.163602	0.986460						
04774														-1.496885	-9.640648	0.921421	0.998863	-0.043581	0.019341	0.046616	0.977842	-0.204089	-0.010018	0.204759	0.978761						
04775														0.456152	-9.579945	0.819517	0.998359	-0.039117	0.041828	0.048457	0.966270	-0.252932	-0.030523	0.254544	0.966579						
04776														1.237674	-12.267450	-0.783089	0.997681	-0.032868	0.059604	0.049750	0.949763	-0.308991	-0.046453	0.311240	0.949195						
04777														2.209251	-15.444734	-2.078956	0.996484	-0.034149	0.076505	0.060028	0.928036	-0.367621	-0.058446	0.370921	0.926824						
04778														3.527539	-14.349034	-5.110233	0.994861	-0.038351	0.093701	0.074606	0.903334	-0.422399	-0.068444	0.427219	0.901554						
04779														1.024411	-12.553606	-5.862607	0.992238	-0.052894	0.112540	0.100024	0.877190	-0.469609	-0.073880	0.477221	0.875672						
04780														1.151077	-11.159576	-6.228318	0.989157	-0.066281	0.131058	0.124559	0.851394	-0.509523	-0.077810	0.520322	0.850418						
04781														0.861022	-9.271998	-5.224848	0.988118	-0.067282	0.138190	0.132149	0.831028	-0.540305	-0.078487	0.552146	0.830045						
04782														0.193245	-8.739782	-2.468818	0.989365	-0.061984	0.131585	0.125346	0.822271	-0.555120	-0.073790	0.565710	0.821296						
04783														2.153418	-6.884451	-3.640021	0.993485	-0.046183	0.104185	0.096639	0.825946	-0.555404	-0.060401	0.561854	0.825028						
04784														2.874586	-7.164032	-3.508676	0.995834	-0.039689	0.082089	0.077694	0.840566	-0.536109	-0.047723	0.540254	0.840148						
04785														3.258029	-7.056315	-3.881906	0.997296	-0.035196	0.064507	0.062813	0.863887	-0.499753	-0.038138	0.502454	0.863763						
04786														3.555830	-7.408368	-4.286640	0.997986	-0.036314	0.052003	0.055794	0.892558	-0.447467	-0.030166	0.449467	0.892787						
04787														2.389516	-8.033851	-4.564370	0.998295	-0.042063	0.040471	0.054348	0.922744	-0.381563	-0.021295	0.383112	0.923456						
04788														1.734443	-8.668639	-4.944272	0.998760	-0.043325	0.024540	0.048746	0.951253	-0.304535	-0.010150	0.305353	0.952185						
04789														1.664859	-9.315950	-5.327793	0.999212	-0.039326	0.005393	0.039554	0.975030	-0.218521	0.003335	0.218562	0.975817						
04790														2.061384	-9.561170	-6.455291	0.999455	-0.030188	-0.013381	0.028218	0.991278	-0.128730	0.017151	0.128282	0.991589						
04791														3.508368	-8.732699	-6.749683	0.999094	-0.033601	-0.026108	0.032426	0.998498	-0.044163	0.027553	0.043277	0.998683						
04792														2.791892	-4.918101	-7.501712	0.997615	-0.056708	-0.039361	0.057553	0.998128	0.020672	0.038115	-0.022888	0.999011						
04793														0.294499	-6.294772	-7.131828	0.994248	-0.094080	-0.051192	0.096931	0.993692	0.056399	0.045563	-0.061037	0.997095						
04794														-0.785955	-6.325719	-6.264039	0.991398	-0.117229	-0.058208	0.121010	0.990431	0.066353	0.049873	-0.072826	0.996097						
04795														-0.258099	-5.962046	-6.934685	0.990843	-0.120195	-0.061512	0.123575	0.990840	0.054447	0.054404	-0.061549	0.996620						
04796														-1.092536	-6.487237	-7.273356	0.992081	-0.109652	-0.061244	0.111545	0.993354	0.028386	0.057724	-0.034993	0.997719						
04797														-1.945692	-7.004806	-6.042012	0.994466	-0.087761	-0.057748	0.087726	0.996140	-0.003152	0.057802	-0.001931	0.998326						
04798														0.389426	-11.904745	-1.075471	0.996701	-0.050943	-0.063184	0.049469	0.998471	-0.024673	0.064345	0.021466	0.997697						
04799														7.369213	-17.608337	-2.258326	0.997681	-0.036867	-0.057221	0.034333	0.998413	-0.044647	0.058776	0.042579	0.997363						
04800														-0.176408	-6.450557	-3.733387	0.998441	-0.019656	-0.052249	0.016453	0.998000	-0.061038	0.053344	0.060084	0.996767						
04801														2.535915	-8.631026	-4.279075	0.998253	0.005319	-0.058837	-0.010170	0.996543	-0.082453	0.058195	0.082908	0.994857						
04802														1.507878	-9.591367	-4.426883	0.997797	0.017603	-0.063968	-0.023979	0.994665	-0.100327	0.061860	0.101640	0.992896						
04803														0.288483	-9.702780	-4.320107	0.997486	0.016452	-0.068925	-0.024268	0.993168	-0.114145	0.066576	0.115531	0.991070						
04804														-1.626262	-9.898030	-4.208453	0.997427	0.011066	-0.070826	-0.019825	0.992061	-0.124185	0.068889	0.125269	0.989728						
04805														-1.092948	-8.935793	-3.873340	0.996997	0.022375	-0.074140	-0.032024	0.990782	-0.131624	0.070511	0.133603	0.988523						
04806														1.492035	-9.331826	-3.904843	0.996377	0.033144	-0.078317	-0.043791	0.989407	-0.138403	0.072900	0.141332	0.987275						
04807														0.123334	-10.091452	-3.897700	0.996128	0.033770	-0.081174	-0.045195	0.988644	-0.143317	0.075413	0.146431	0.986342						
04808														-0.209219	-9.913547	-4.623879	0.995890	0.034257	-0.083843	-0.046172	0.988414	-0.144591	0.077918	0.147868	0.985933						
04809														-0.082246	-9.297439	-4.884965	0.995821	0.033055	-0.085139	-0.045045	0.988697	-0.143004	0.079450	0.146241	0.986053						
04810														-0.258919	-9.744848	-4.297948	0.995930	0.030076	-0.084968	-0.041695	0.989490	-0.138458	0.079911	0.141437	0.986717						
04811														0.424556	-9.829675	-3.745314	0.996127	0.026058	-0.083982	-0.037006	0.990615	-0.131575	0.079765	0.134173	0.987742						
04812														-0.069094	-9.450288	-2.746353	0.996542	0.017072	-0.081324	-0.027071	0.991976	-0.123494	0.078563	0.125269	0.989007						
04813														-0.837794	-9.087450	-2.436134	0.996747	0.011597	-0.079760	-0.020780	0.993116	-0.115280	0.077874	0.116563	0.990126						
04814														-0.465784	-9.158906	-2.810864	0.996782	0.012852	-0.079123	-0.021326	0.994009	-0.107199	0.077271	0.108541	0.991084						
04815														0.164164	-9.364654	-2.911189	0.996869	0.013919	-0.077835	-0.021578	0.994908	-0.098446	0.076068	0.099818	0.992094						
04816														0.077980	-9.366324	-2.716152	0.997099	0.010635	-0.075374	-0.017389	0.995834	-0.089516	0.074108	0.090567	0.993129						
04817														-0.513342	-9.353969	-1.815714	0.997444	0.002033	-0.071429	-0.007920	0.996582	-0.082234	0.071018	0.082589	0.994050						
04818														-1.058325	-9.088315	-0.640152	0.997806	-0.007236	-0.065813	0.002114	0.996986	-0.077554	0.066176	0.077245	0.994814						
04819														-1.738255	-8.782889	1.333244	0.998172	-0.019775	-0.057111	0.015208	0.996734	-0.079314	0.058493	0.078301	0.995212						
04820														-1.989885	-8.716966	3.075959	0.998529	-0.030419	-0.044876	0.026184	0.995404	-0.092113	0.047472	0.090803	0.994737						
04821														-1.601749	-8.961272	2.579996	0.998909	-0.035898	-0.029874	0.032197	0.992696	-0.116269	0.033830	0.115180	0.992768						
04822														-1.176829	-9.722912	1.232436	0.999100	-0.040896	-0.011279	0.038769	0.988128	-0.148658	0.017224	0.148086	0.988824						
04823														-2.469676	-9.543326	1.064269	0.999009	-0.042991	0.011543	0.044400	0.980904	-0.189358	-0.003182	0.189683	0.981840						
04824														-1.137934	-9.427080	1.603421	0.998754	-0.036377	0.034173	0.043623	0.968904	-0.243560	-0.024251	0.244748	0.969283						
04825														1.465475	-13.393466	0.438698	0.998249	-0.029181	0.051447	0.043703	0.950011	-0.309143	-0.039854	0.310850	0.949623						
04826														3.414237	-16.477255	-2.155900	0.996835	-0.036418	0.070663	0.060352	0.925253	-0.374519	-0.051742	0.377599	0.924523						
04827														2.493481	-14.711323	-5.041680	0.994503	-0.047432	0.093353	0.083567	0.896722	-0.434633	-0.063096	0.440045	0.895756						
04828														0.566480	-12.953946	-5.973202	0.992067	-0.054416	0.113325	0.103008	0.868621	-0.484651	-0.072063	0.492480	0.867335						
04829														0.766317	-10.721124	-7.539494	0.990035	-0.056355	0.129055	0.116230	0.844428	-0.522907	-0.079509	0.532696	0.842563						
04830														1.181715	-7.700576	-7.127207	0.990067	-0.046954	0.132528	0.113017	0.826490	-0.551490	-0.083638	0.560990	0.823587						
04831														0.759477	-8.071206	-2.889209	0.991216	-0.039484	0.126223	0.104281	0.820336	-0.562294	-0.081343	0.570518	0.817247						
04832														1.241579	-5.320922	-4.119964	0.995386	-0.017908	0.094271	0.067550	0.828533	-0.555851	-0.068152	0.559654	0.825919						
04833														4.115227	-5.528427	-3.973988	0.997768	-0.006786	0.066428	0.040961	0.847867	-0.528624	-0.052735	0.530165	0.846253						
04834														4.213046	-5.736204	-4.525159	0.998510	-0.013671	0.052835	0.037413	0.876298	-0.480314	-0.039733	0.481575	0.875504						
04835														3.077358	-6.294515	-4.700766	0.998376	-0.032635	0.046690	0.049087	0.908750	-0.414444	-0.028904	0.416063	0.908876						
04836														1.628612	-7.349781	-4.921051	0.997984	-0.051646	0.036877	0.061028	0.940405	-0.334537	-0.017402	0.336113	0.941661						
04837														0.081512	-8.692456	-4.426558	0.998374	-0.054380	0.017073	0.056909	0.967721	-0.245516	-0.003171	0.246088	0.969242						
04838														0.125320	-9.136825	-6.127207	0.999582	-0.027719	-0.008260	0.026103	0.987547	-0.155145	0.012457	0.154865	0.987857						
04839														1.600161	-9.189496	-6.789461	0.999608	0.006820	-0.027164	-0.008718	0.997482	-0.070376	0.026616	0.070585	0.997151						
04840														2.168031	-8.989698	-7.196101	0.998900	0.030234	-0.035849	-0.030143	0.999541	0.003077	0.035926	-0.001993	0.999352						
04841														1.133867	-7.546863	-6.814877	0.998463	0.038917	-0.039451	-0.036599	0.997652	0.057886	0.041611	-0.056354	0.997543						
04842														0.744460	-6.086631	-6.066818	0.998170	0.043680	-0.041819	-0.039794	0.995180	0.089633	0.045532	-0.087805	0.995097						
04843														0.689639	-5.760465	-5.211884	0.998038	0.043049	-0.045459	-0.038566	0.994706	0.095249	0.049319	-0.093309	0.994415						
04844														0.487421	-5.956445	-5.033461	0.997933	0.041307	-0.049234	-0.037268	0.996073	0.080311	0.052358	-0.078310	0.995553						
04845														0.081561	-6.333123	-5.218763	0.997694	0.041974	-0.053335	-0.039347	0.998004	0.049394	0.055302	-0.047182	0.997354						
04846														-0.527649	-8.277671	-3.189543	0.997945	0.026972	-0.058124	-0.026342	0.999586	0.011586	0.058412	-0.010032	0.998242						
04847														-1.336759	-14.816205	2.794445	0.997124	0.045040	-0.060949	-0.046313	0.998734	-0.019644	0.059987	0.022411	0.997948						
04848														4.748367	-14.554949	-1.642896	0.996878	0.058465	-0.053069	-0.061037	0.996970	-0.048217	0.050089	0.051306	0.997426						
04849														0.138810	-6.985394	-4.818146	0.994533	0.088848	-0.054858	-0.092975	0.992614	-0.077934	0.047528	0.082608	0.995448						
04850														2.646871	-8.916982	-5.909093	0.991811	0.111042	-0.063094	-0.117290	0.987434	-0.105915	0.050540	0.112448	0.992371						
04851														0.782985	-9.069042	-6.028964	0.992173	0.105576	-0.066682	-0.113397	0.985385	-0.127111	0.052288	0.133678	0.989644						
04852														-1.858815	-10.026117	-5.369211	0.992261	0.101717	-0.071221	-0.110971	0.983762	-0.141058	0.055717	0.147869	0.987436						
04853														-1.523613	-9.871340	-5.028497	0.991158	0.109366	-0.075132	-0.119657	0.981432	-0.149914	0.057342	0.157578	0.985840						
04854														0.176929	-9.112716	-4.347186	0.989613	0.120217	-0.078828	-0.131378	0.978913	-0.156428	0.058360	0.165159	0.984539						
04855														1.076945	-9.658141	-3.424992	0.988299	0.127920	-0.083080	-0.139996	0.976957	-0.161109	0.060557	0.170855	0.983434						
04856														1.194160	-9.808746	-3.827449	0.987774	0.129243	-0.087175	-0.142254	0.976002	-0.164876	0.063774	0.175261	0.982454						
04857														-0.299906	-9.595456	-4.561490	0.988167	0.124053	-0.090207	-0.137841	0.976185	-0.167518	0.067277	0.177970	0.981733						
04858														-0.709493	-9.451963	-4.916254	0.988648	0.118973	-0.091764	-0.133085	0.976883	-0.167294	0.069739	0.177607	0.981627						
04859														-0.654155	-9.382011	-4.566901	0.989428	0.112928	-0.090992	-0.126742	0.978277	-0.164042	0.070491	0.173840	0.982248						
04860														-0.169729	-9.430108	-4.585360	0.990266	0.106917	-0.089122	-0.119991	0.980233	-0.157305	0.070542	0.166468	0.983520						
04861														0.416346	-9.194714	-3.637194	0.991685	0.095580	-0.086175	-0.107659	0.983017	-0.148616	0.070507	0.156658	0.985133						
04862														-0.265268	-9.100197	-3.147377	0.992657	0.086661	-0.084395	-0.097880	0.985382	-0.139431	0.071078	0.146668	0.986629						
04863														0.256004	-9.267409	-3.241489	0.992954	0.082598	-0.084966	-0.093152	0.987279	-0.128855	0.073242	0.135862	0.988017						
04864														0.094453	-9.469487	-3.449541	0.993263	0.077717	-0.085960	-0.087504	0.989309	-0.116663	0.075974	0.123398	0.989445						
04865														-0.239173	-9.612556	-3.265197	0.993447	0.073747	-0.087318	-0.082663	0.991206	-0.103332	0.078930	0.109873	0.990807						
04866														0.132194	-9.016243	-2.461293	0.993960	0.065778	-0.087843	-0.073662	0.993237	-0.089749	0.081346	0.095677	0.992083						
04867														-1.603480	-8.502350	-0.208787	0.995087	0.049931	-0.085493	-0.056842	0.995140	-0.080405	0.081062	0.084869	0.993089						
04868														-2.976842	-8.739395	3.337606	0.995910	0.041175	-0.080429	-0.047670	0.995608	-0.080574	0.076758	0.084079	0.993498						
04869														-1.820402	-9.480177	2.993150	0.996693	0.037086	-0.072298	-0.043653	0.994850	-0.091474	0.068534	0.094328	0.993179						
04870														-1.153343	-9.375408	0.749563	0.997623	0.032306	-0.060865	-0.038872	0.993174	-0.109976	0.056896	0.112080	0.992069						
04871														-0.852456	-8.975093	-0.327702	0.998590	0.025804	-0.046386	-0.031873	0.990297	-0.135263	0.042445	0.136551	0.989723						
04872														-1.809843	-8.919644	0.206091	0.999373	0.021151	-0.028407	-0.025655	0.985289	-0.168959	0.024416	0.169582	0.985214						
04873														-2.320048	-10.257621	0.874864	0.999732	0.021388	-0.008892	-0.022786	0.977049	-0.211793	0.004158	0.211939	0.977274						
04874														-1.381037	-13.030972	0.851133	0.999493	0.031108	0.006731	-0.028246	0.964412	-0.262893	-0.014669	0.262569	0.964802						
04875														2.953652	-13.335879	-0.441286	0.999093	0.033648	0.026104	-0.023437	0.946220	-0.322674	-0.035557	0.321770	0.946150						
04876														2.298540	-16.282837	0.061607	0.998572	0.013411	0.051706	0.007578	0.922621	-0.385633	-0.052877	0.385475	0.921202						
04877														0.519553	-15.223814	-2.746049	0.996946	0.002289	0.078062	0.032857	0.894503	-0.445853	-0.070847	0.447056	0.891696						
04878														0.338487	-13.220735	-5.495384	0.995667	0.015041	0.091771	0.033321	0.863611	-0.503057	-0.086820	0.503935	0.859367						
04879														-0.766422	-11.239512	-6.401193	0.994495	0.027221	0.101183	0.032394	0.838482	-0.543966	-0.099647	0.544249	0.832984						
04880														1.921394	-7.017401	-9.105941	0.994035	0.051719	0.096017	0.012941	0.818250	-0.574716	-0.108290	0.572531	0.812700						
04881														3.179883	-7.911424	-4.698757	0.993794	0.053060	0.097762	0.015190	0.805927	-0.591820	-0.110191	0.589633	0.800120						
04882														1.227555	-6.908392	-3.666754	0.994333	0.052470	0.092455	0.011797	0.809870	-0.586491	-0.105650	0.584258	0.804662						
04883														2.240799	-4.175311	-4.218793	0.995631	0.052490	0.077226	0.000102	0.826437	-0.563029	-0.093376	0.560576	0.822821						
04884														3.886316	-5.040047	-4.098218	0.996796	0.041347	0.068477	0.000191	0.854817	-0.518929	-0.079991	0.517280	0.852070						
04885														3.034266	-5.407584	-4.206766	0.997711	0.021015	0.064276	0.010586	0.890232	-0.455384	-0.066790	0.455022	0.887972						
04886														2.569129	-5.991653	-4.684677	0.998444	0.000690	0.055758	0.020278	0.926968	-0.374593	-0.051944	0.375140	0.925511						
04887														2.691557	-7.383934	-5.496949	0.998983	-0.017645	0.041496	0.028500	0.960215	-0.277805	-0.034944	0.278705	0.959741						
04888														2.637030	-8.787469	-5.764533	0.999140	-0.034655	0.022757	0.037987	0.985108	-0.167689	-0.016607	0.168409	0.985577						
04889														1.931559	-10.383881	-6.025473	0.998906	-0.046753	0.000741	0.046735	0.997785	-0.047345	0.001474	0.047328	0.998878						
04890														1.497715	-11.847354	-5.917122	0.998469	-0.051696	-0.019664	0.053097	0.995456	0.079048	0.015489	-0.079972	0.996677						
04891														0.630749	-11.799111	-5.533256	0.998046	-0.049354	-0.038315	0.056141	0.977518	0.203239	0.027423	-0.204993	0.978379						
04892														0.844367	-11.514838	-4.088760	0.997694	-0.039305	-0.055334	0.054650	0.948673	0.311500	0.040250	-0.313806	0.948634						
04893														1.538000	-12.060774	-3.390568	0.997695	-0.021175	-0.064475	0.045384	0.914552	0.401913	0.050455	-0.403913	0.913405						
04894														2.709024	-5.999047	-0.655701	0.996880	-0.027947	-0.073817	0.059537	0.880245	0.470769	0.051821	-0.473695	0.879163						
04895														-0.456782	-0.794852	2.961871	0.993710	-0.058335	-0.095589	0.097781	0.868049	0.486754	0.054581	-0.493039	0.868293						
04896														-1.315109	-6.865377	-1.080528	0.994540	-0.051848	-0.090561	0.088283	0.880752	0.465276	0.055638	-0.470731	0.880521						
04897														0.701574	-7.299335	-1.072989	0.995302	-0.049431	-0.083255	0.080683	0.898776	0.430921	0.053527	-0.435613	0.898541						
04898														0.637761	-7.059873	-3.586616	0.995656	-0.051170	-0.077788	0.077130	0.921262	0.381217	0.052156	-0.385561	0.921207						
04899														0.106591	-7.984625	-3.676213	0.995974	-0.052560	-0.072619	0.073187	0.944544	0.320127	0.051766	-0.324152	0.944587						
04900														0.459853	-9.332779	-3.433287	0.996658	-0.047201	-0.066669	0.062759	0.964886	0.255062	0.052289	-0.258393	0.964624						
04901														0.387815	-9.101559	-3.325249	0.997312	-0.039798	-0.061516	0.051085	0.979580	0.194455	0.052521	-0.197075	0.978981						
04902														1.135554	-6.892487	-4.971454	0.997716	-0.032134	-0.059411	0.039889	0.990132	0.134343	0.054508	-0.136406	0.989152						
04903														1.220259	-10.374782	-2.224533	0.995132	-0.072123	-0.067157	0.077475	0.993712	0.080831	0.060905	-0.085641	0.994463						
04904														-16.326290	-22.759075	24.058353	0.989053	-0.110220	-0.098109	0.118334	0.989654	0.081131	0.088151	-0.091852	0.991863						
04905														12.294255	-17.104867	-6.556140	0.995354	0.046911	-0.084080	-0.041201	0.996807	0.068402	0.087020	-0.064620	0.994108						
04906														0.686097	-7.127340	-3.623281	0.996340	0.042799	-0.073992	-0.039330	0.998086	0.047720	0.075893	-0.044635	0.996116						
04907														-1.769084	-5.595828	-4.403016	0.993157	0.085960	-0.079052	-0.084928	0.996253	0.016337	0.080160	-0.009511	0.996737						
04908														5.505594	-11.146541	-5.257607	0.989764	0.109095	-0.092012	-0.110215	0.993882	-0.007162	0.090668	0.017230	0.995732						
04909														1.735895	-10.879496	-4.759478	0.989567	0.104660	-0.099011	-0.106920	0.994108	-0.017793	0.096566	0.028194	0.994927						
04910														-1.769524	-9.567368	-5.120790	0.991517	0.079487	-0.102836	-0.082700	0.996199	-0.027360	0.100270	0.035633	0.994322						
04911														-2.325362	-9.969358	-3.036251	0.989965	0.087717	-0.110794	-0.092108	0.995129	-0.035142	0.107172	0.044994	0.993222						
04912														2.053842	-10.592370	-2.897001	0.988329	0.095910	-0.118354	-0.101069	0.994139	-0.038372	0.113980	0.049886	0.992230						
04913														-0.811875	-10.111114	-3.008263	0.988533	0.086911	-0.123485	-0.092261	0.994999	-0.038285	0.119540	0.049239	0.991608						
04914														-1.052744	-9.422671	-3.002154	0.988806	0.078092	-0.127139	-0.083273	0.995878	-0.035946	0.123808	0.046131	0.991233						
04915														-1.054715	-9.202055	-1.878020	0.989207	0.068553	-0.129498	-0.073489	0.996726	-0.033725	0.126762	0.042878	0.991006						
04916														-0.898626	-9.648729	-1.140902	0.989170	0.064121	-0.132029	-0.068715	0.997169	-0.030532	0.129698	0.039274	0.990776						
04917														0.012387	-9.373871	-1.209048	0.989404	0.055644	-0.134102	-0.059815	0.997837	-0.027274	0.132294	0.035006	0.990592						
04918														-0.411099	-9.186131	-1.334557	0.989824	0.042354	-0.135846	-0.046385	0.998568	-0.026644	0.134523	0.032674	0.990372						
04919														-1.839817	-9.597222	-1.289532	0.989835	0.035208	-0.137790	-0.039300	0.998860	-0.027090	0.136679	0.032230	0.990091						
04920														-0.924701	-9.788202	-1.752980	0.989636	0.034882	-0.139294	-0.039057	0.998863	-0.027349	0.138182	0.032506	0.989873						
04921														-0.598427	-9.898985	-1.889651	0.989984	0.025677	-0.138824	-0.029850	0.999161	-0.028057	0.137987	0.031919	0.989920						
04922														-1.766791	-9.585910	-1.430480	0.990477	0.014876	-0.136874	-0.019041	0.999393	-0.029170	0.136357	0.031499	0.990159						
04923														-1.724544	-9.344025	-1.213151	0.991013	0.007871	-0.133534	-0.012208	0.999423	-0.031696	0.133207	0.033041	0.990537						
04924														-1.437942	-9.359061	-0.550870	0.991636	0.001792	-0.129055	-0.006496	0.999329	-0.036037	0.128903	0.036573	0.990982						
04925														-1.575734	-9.556057	-0.775514	0.992267	0.000315	-0.124121	-0.005547	0.999110	-0.041808	0.123997	0.042173	0.991386						
04926														-1.045057	-9.353766	-1.053063	0.993049	-0.001741	-0.117690	-0.004205	0.998728	-0.050256	0.117628	0.050401	0.991778						
04927														-0.798412	-9.126088	-0.948001	0.993944	-0.005861	-0.109729	-0.000937	0.998088	-0.061799	0.109881	0.061527	0.992039						
04928														-0.333015	-9.421304	-1.130500	0.994816	-0.008517	-0.101329	0.000805	0.997115	-0.075903	0.101684	0.075428	0.991953						
04929														0.283643	-9.592830	-1.771485	0.995611	-0.011791	-0.092840	0.003286	0.995824	-0.091230	0.093528	0.090525	0.991493						
04930														-0.163939	-9.036355	-2.024602	0.996349	-0.014912	-0.084057	0.005792	0.994165	-0.107718	0.085173	0.106838	0.990622						
04931														-0.662182	-8.917730	-2.170982	0.997084	-0.017172	-0.074349	0.007622	0.991889	-0.126875	0.075925	0.125939	0.989128						
04932														-0.813212	-9.427820	-2.206731	0.997817	-0.019935	-0.062960	0.010415	0.988924	-0.148054	0.065214	0.147076	0.986973						
04933														-1.005941	-9.779227	-2.643810	0.998482	-0.026464	-0.048303	0.017949	0.985472	-0.168887	0.052070	0.167763	0.984451						
04934														-0.599043	-9.575890	-2.701182	0.998956	-0.032168	-0.032432	0.025405	0.981302	-0.190789	0.037962	0.189766	0.981095						
04935														-0.770819	-9.606546	-2.232416	0.999218	-0.036795	-0.014441	0.032838	0.976090	-0.214874	0.022003	0.214232	0.976535						
04936														-0.334323	-9.147037	-1.729746	0.999261	-0.038150	0.004683	0.038146	0.969385	-0.242566	0.004714	0.242565	0.970124						
04937														-0.550225	-9.451270	-1.197732	0.998669	-0.043718	0.027366	0.049584	0.959870	-0.276028	-0.014201	0.277017	0.960760						
04938														-1.818121	-10.540417	0.264673	0.997471	-0.048549	0.051905	0.062604	0.945908	-0.318338	-0.033643	0.320782	0.946555						
04939														0.222473	-12.786241	0.782574	0.996160	-0.046571	0.074138	0.070851	0.926265	-0.370154	-0.051433	0.373985	0.926007						
04940														0.593043	-14.270688	-0.396201	0.993613	-0.054148	0.099000	0.091503	0.900039	-0.426095	-0.066032	0.432433	0.899245						
04941														0.691439	-14.785205	-3.363964	0.990963	-0.057776	0.121057	0.109675	0.868585	-0.483251	-0.077228	0.492160	0.867072						
04942														1.324991	-12.895804	-7.524321	0.988949	-0.057070	0.136830	0.122308	0.835666	-0.535446	-0.083786	0.546265	0.833411						
04943														1.078857	-10.484705	-9.206797	0.986349	-0.060607	0.153112	0.139057	0.804583	-0.577329	-0.088201	0.590739	0.802027						
04944														1.005475	-9.271727	-6.576574	0.985333	-0.055253	0.161447	0.143493	0.780311	-0.608707	-0.092346	0.622946	0.776795						
04945														0.601062	-6.943097	-5.261413	0.988523	-0.036772	0.146527	0.121564	0.769464	-0.627014	-0.089690	0.637630	0.765103						
04946														4.305475	-6.089967	-4.812077	0.992074	-0.024919	0.123157	0.097575	0.770330	-0.630136	-0.079169	0.637159	0.766656						
04947														5.115212	-5.532264	-4.849538	0.993623	-0.031132	0.108369	0.091517	0.784092	-0.613860	-0.065861	0.619863	0.781942						
04948														3.918023	-5.678756	-4.436313	0.993536	-0.049988	0.101922	0.100181	0.808357	-0.580106	-0.053391	0.586566	0.808140						
04949														2.484779	-5.904369	-4.189210	0.993615	-0.066642	0.091034	0.105108	0.840008	-0.532297	-0.040996	0.538467	0.841649						
04950														3.131677	-6.496288	-4.937804	0.994588	-0.074574	0.072348	0.100017	0.875784	-0.472228	-0.028145	0.476908	0.878502						
04951														4.301692	-7.570910	-5.612964	0.994900	-0.083935	0.055930	0.099325	0.911751	-0.398554	-0.017542	0.402077	0.915438						
04952														3.996779	-8.044878	-6.196242	0.993752	-0.102367	0.044477	0.111176	0.943060	-0.313494	-0.009853	0.316480	0.948548						
04953														2.849777	-8.861579	-6.013928	0.991272	-0.127439	0.033747	0.131759	0.966209	-0.221541	-0.004374	0.224054	0.974567						
04954														0.762704	-9.084074	-5.810700	0.989822	-0.141324	0.016747	0.142300	0.981311	-0.129535	0.001872	0.130599	0.991433						
04955														0.636156	-9.288406	-6.190158	0.990759	-0.135570	-0.004197	0.135239	0.989755	-0.045768	0.010359	0.044778	0.998943						
04956														1.155258	-8.261253	-5.885201	0.993783	-0.109025	-0.022569	0.109608	0.993623	0.026448	0.019542	-0.028757	0.999395						
04957														3.411339	-7.838223	-6.030659	0.995963	-0.083765	-0.032276	0.086251	0.992604	0.085430	0.024881	-0.087869	0.995821						
04958														2.471787	-7.702107	-5.150896	0.996430	-0.077088	-0.034406	0.080915	0.988343	0.128959	0.024064	-0.131283	0.991053						
04959														0.832670	-6.683623	-4.456161	0.996486	-0.076963	-0.033063	0.081188	0.984561	0.155073	0.020618	-0.157212	0.987350						
04960														0.099554	-6.586723	-3.068162	0.997081	-0.069677	-0.031206	0.073843	0.983957	0.162404	0.019389	-0.164234	0.986231						
04961														-0.361147	-7.458333	-3.300637	0.998350	-0.049346	-0.029350	0.053325	0.986407	0.155426	0.021281	-0.156734	0.987412						
04962														0.471224	-6.343095	-4.868299	0.999300	-0.026406	-0.026499	0.029654	0.990968	0.130782	0.022806	-0.131476	0.991057						
04963														1.964096	-7.839950	-4.638801	0.999664	-0.011836	-0.023044	0.013916	0.995635	0.092286	0.021851	-0.092576	0.995466						
04964														0.992600	-7.163617	-4.587503	0.999767	-0.008275	-0.019935	0.009205	0.998852	0.047007	0.019524	-0.047179	0.998696						
04965														2.614664	-10.415008	-0.159636	0.999221	-0.030071	-0.025568	0.030312	0.999499	0.009059	0.025283	-0.009827	0.999632						
04966														1.273315	-10.339474	-0.374017	0.998940	-0.031372	-0.033678	0.030980	0.999447	-0.012106	0.034039	0.011050	0.999359						
04967														0.274658	-14.955641	1.273641	0.998972	-0.028734	-0.035055	0.027508	0.999009	-0.034977	0.036025	0.033977	0.998773						
04968														0.102301	-14.474652	-2.703260	0.999241	0.005962	-0.038507	-0.008173	0.998312	-0.057495	0.038100	0.057766	0.997603						
04969														3.006927	-8.117843	-4.865425	0.998594	0.021046	-0.048650	-0.024901	0.996479	-0.080059	0.046794	0.081158	0.995602						
04970														2.156644	-7.913771	-6.340715	0.998259	0.015037	-0.057036	-0.020548	0.995043	-0.097301	0.055290	0.098304	0.993619						
04971														-0.607308	-9.582431	-5.504273	0.997984	-0.004962	-0.063277	-0.002005	0.993978	-0.109560	0.063440	0.109466	0.991964						
04972														-0.991648	-9.790243	-4.159441	0.997427	-0.012547	-0.070584	0.004211	0.993120	-0.117021	0.071567	0.116423	0.990618						
04973														-1.010398	-10.031423	-2.790859	0.996855	-0.010130	-0.078602	0.000457	0.992516	-0.122111	0.079251	0.121691	0.989399						
04974														-1.300935	-9.802530	-2.720750	0.996264	-0.003814	-0.086277	-0.007151	0.991949	-0.126433	0.086064	0.126578	0.988216						
04975														-0.801328	-9.827363	-3.511046	0.995753	-0.000657	-0.092065	-0.011373	0.991438	-0.130078	0.091362	0.130573	0.987220						
04976														-0.410925	-9.432533	-4.896067	0.995418	0.001629	-0.095601	-0.014266	0.991194	-0.131648	0.094545	0.132408	0.986676						
04977														0.080405	-9.536706	-4.349344	0.995193	0.000426	-0.097928	-0.013252	0.991377	-0.130365	0.097028	0.131036	0.986618						
04978														0.336112	-9.865444	-3.815737	0.995017	-0.003595	-0.099640	-0.009051	0.991966	-0.126178	0.099293	0.126451	0.986991						
04979														0.123385	-9.604524	-3.802327	0.994976	-0.014393	-0.099072	0.002399	0.992754	-0.120137	0.100083	0.119296	0.987802						
04980														-0.833699	-9.501085	-2.631322	0.994811	-0.029250	-0.097443	0.018107	0.993391	-0.113343	0.100114	0.110991	0.988766						
04981														-0.863528	-9.186679	-2.485003	0.994663	-0.038582	-0.095693	0.028339	0.993943	-0.106176	0.099209	0.102898	0.989732						
04982														-0.523538	-9.189903	-2.371652	0.994485	-0.046924	-0.093791	0.037524	0.994322	-0.099580	0.097931	0.095511	0.990599						
04983														-0.722158	-9.189119	-1.741547	0.994219	-0.056341	-0.091397	0.047726	0.994442	-0.093848	0.096177	0.088943	0.991382						
04984														-0.863232	-9.342171	-1.170048	0.993988	-0.064412	-0.088540	0.056331	0.994263	-0.090924	0.093889	0.085390	0.991914						
04985														-0.624973	-9.470244	-0.696311	0.993964	-0.069578	-0.084824	0.061829	0.993949	-0.090790	0.090628	0.084997	0.992251						
04986														-1.215511	-9.075681	-0.194261	0.994040	-0.074798	-0.079310	0.067161	0.993215	-0.094942	0.085873	0.089050	0.992318						
04987														-1.208297	-9.228062	-0.188017	0.994433	-0.076789	-0.072157	0.069022	0.992118	-0.104581	0.079619	0.099019	0.991895						
04988														-0.515085	-9.340159	-0.187273	0.994861	-0.079324	-0.062920	0.071426	0.990304	-0.119145	0.071761	0.114039	0.990881						
04989														-1.277175	-9.189919	-0.650484	0.995435	-0.080074	-0.051933	0.072230	0.987730	-0.138462	0.062383	0.134079	0.989005						
04990														-1.036069	-9.254871	-1.402422	0.996331	-0.075682	-0.039967	0.068275	0.984415	-0.162064	0.051610	0.158740	0.985971						
04991														-0.523613	-9.328713	-1.862796	0.997016	-0.072625	-0.026162	0.066410	0.979745	-0.188915	0.039352	0.186614	0.981645						
04992														-0.649810	-10.103702	-2.389024	0.997492	-0.069992	-0.010513	0.066007	0.973546	-0.218751	0.025546	0.217508	0.975724						
04993														0.383480	-11.362556	-2.721267	0.998048	-0.062255	0.004947	0.061513	0.966273	-0.250065	0.010788	0.249882	0.968216						
04994														1.913282	-10.973751	-2.525798	0.997757	-0.063326	0.021678	0.066873	0.956926	-0.282527	-0.002853	0.283343	0.959014						
04995														1.583449	-12.139727	-1.744410	0.996626	-0.072544	0.038395	0.081016	0.944467	-0.318461	-0.013161	0.320498	0.947158						
04996														1.689874	-13.028025	-1.430162	0.994662	-0.085326	0.058021	0.100514	0.928322	-0.357932	-0.023321	0.361854	0.931943						
04997														1.277271	-12.344023	-1.492904	0.992475	-0.093271	0.079330	0.117397	0.908956	-0.400022	-0.034797	0.406325	0.913066						
04998														1.565613	-11.973582	-2.085958	0.989746	-0.102017	0.099980	0.136129	0.885693	-0.443865	-0.043270	0.452924	0.890499						
04999														0.156206	-12.109327	-3.904728	0.985894	-0.115323	0.121296	0.160111	0.860958	-0.482821	-0.048751	0.495431	0.867278						
05000														-2.417405	-9.878676	-5.786301	0.984857	-0.112622	0.131805	0.165270	0.839531	-0.517565	-0.052365	0.531511	0.845431						
