// General information: 
//  MT Manager version: 2022.2.0 
//  XDA version: 2022.2.0 build 7381 rev 124627 built on 2023-07-19
// Device information: 
//  DeviceId: 00B4D4C7
//  ProductCode: MTW2-3A7G6
//  Firmware Version: 4.6.0
//  Hardware Version: 2.0.0
// Device settings: 
//  Filter Profile: human(46.1)
//  Option Flags: Orientation Smoother Disabled, Position/Velocity Smoother Disabled, Continuous Zero Rotation Update Disabled, AHS Disabled, ICC Disabled
// Coordinate system: ENU
PacketCounter	SampleTimeFine	Year	Month	Day	Second	UTC_Nano	UTC_Year	UTC_Month	UTC_Day	UTC_Hour	UTC_Minute	UTC_Second	UTC_Valid	Acc_X	Acc_Y	Acc_Z	Mat[1][1]	Mat[2][1]	Mat[3][1]	Mat[1][2]	Mat[2][2]	Mat[3][2]	Mat[1][3]	Mat[2][3]	Mat[3][3]	Latitude	Longitude	Altitude	Vel_E	Vel_N	Vel_U
04221														-1.217476	-9.129957	3.471297	0.999995	0.000091	0.003140	-0.000032	0.999824	-0.018778	-0.003142	0.018778	0.999819						
04222														-1.316081	-9.159054	3.448396	0.999992	0.000573	0.003880	-0.000497	0.999806	-0.019680	-0.003891	0.019678	0.999799						
04223														-1.177538	-9.262038	3.455707	0.999990	0.000884	0.004309	-0.000796	0.999794	-0.020285	-0.004326	0.020281	0.999785						
04224														-1.083583	-9.182740	3.387664	0.999989	0.000997	0.004649	-0.000902	0.999791	-0.020402	-0.004669	0.020398	0.999781						
04225														-1.170100	-9.154713	3.314794	0.999986	0.001165	0.005137	-0.001059	0.999787	-0.020629	-0.005160	0.020624	0.999774						
04226														-1.092765	-9.215554	3.350753	0.999984	0.000964	0.005645	-0.000846	0.999783	-0.020831	-0.005664	0.020826	0.999767						
04227														-1.037114	-9.208620	3.362082	0.999982	0.000494	0.006005	-0.000369	0.999784	-0.020791	-0.006014	0.020789	0.999766						
04228														-1.040891	-9.172686	3.329385	0.999981	0.000038	0.006171	0.000089	0.999786	-0.020668	-0.006170	0.020669	0.999767						
04229														-0.837247	-9.141747	3.160062	0.999984	-0.001599	0.005508	0.001716	0.999772	-0.021273	-0.005472	0.021282	0.999759						
04230														-1.066282	-9.267536	3.184349	0.999979	-0.004907	0.004293	0.004998	0.999755	-0.021553	-0.004186	0.021574	0.999758						
04231														-1.072378	-9.418936	3.448858	0.999953	-0.009056	0.003492	0.009130	0.999718	-0.021907	-0.003292	0.021938	0.999754						
04232														-1.132233	-9.373499	3.346259	0.999920	-0.012174	0.003397	0.012245	0.999685	-0.021923	-0.003129	0.021963	0.999754						
04233														-1.294027	-9.095739	3.302498	0.999896	-0.014032	0.003284	0.014099	0.999674	-0.021289	-0.002984	0.021333	0.999768						
04234														-1.183484	-9.058007	3.358311	0.999876	-0.015501	0.002615	0.015553	0.999655	-0.021151	-0.002286	0.021189	0.999773						
04235														-1.148706	-9.191007	3.383326	0.999866	-0.016281	0.001870	0.016317	0.999641	-0.021238	-0.001524	0.021265	0.999773						
04236														-1.326431	-9.192982	3.331551	0.999868	-0.016207	0.001355	0.016232	0.999640	-0.021359	-0.001008	0.021379	0.999771						
04237														-1.306554	-9.215250	3.439905	0.999878	-0.015611	0.001017	0.015630	0.999646	-0.021525	-0.000681	0.021538	0.999768						
04238														-1.267101	-9.188164	3.404005	0.999897	-0.014350	0.000993	0.014368	0.999665	-0.021528	-0.000684	0.021540	0.999768						
04239														-1.245747	-9.185877	3.355304	0.999923	-0.012357	0.001295	0.012382	0.999691	-0.021563	-0.001028	0.021577	0.999767						
04240														-1.158372	-9.161988	3.267838	0.999947	-0.010118	0.001744	0.010154	0.999703	-0.022136	-0.001519	0.022153	0.999753						
04241														-1.143103	-9.223939	3.359432	0.999969	-0.007490	0.002559	0.007546	0.999718	-0.022538	-0.002389	0.022556	0.999743						
04242														-1.197787	-9.253361	3.319024	0.999983	-0.004691	0.003406	0.004766	0.999737	-0.022420	-0.003300	0.022436	0.999743						
04243														-1.147171	-9.204128	3.362773	0.999990	-0.002270	0.003926	0.002356	0.999756	-0.021954	-0.003875	0.021963	0.999751						
04244														-1.119831	-9.155958	3.401354	0.999991	-0.000040	0.004243	0.000131	0.999767	-0.021570	-0.004241	0.021571	0.999758						
04245														-1.122320	-9.126533	3.591697	0.999988	0.002085	0.004526	-0.001988	0.999770	-0.021360	-0.004570	0.021351	0.999762						
04246														-1.181549	-9.165751	3.456523	0.999983	0.003569	0.004695	-0.003467	0.999764	-0.021466	-0.004770	0.021449	0.999759						
04247														-1.151540	-9.154662	3.481833	0.999980	0.004052	0.004804	-0.003946	0.999757	-0.021700	-0.004891	0.021680	0.999753						
04248														-1.126694	-9.210744	3.402884	0.999978	0.004190	0.005063	-0.004079	0.999755	-0.021749	-0.005152	0.021728	0.999751						
04249														-1.191749	-9.186076	3.317354	0.999976	0.004307	0.005401	-0.004190	0.999758	-0.021586	-0.005492	0.021563	0.999752						
04250														-1.195948	-9.207748	3.388279	0.999973	0.004375	0.005854	-0.004248	0.999761	-0.021452	-0.005947	0.021427	0.999753						
04251														-1.077822	-9.291611	3.356119	0.999969	0.004590	0.006392	-0.004453	0.999765	-0.021231	-0.006488	0.021202	0.999754						
04252														-1.155419	-9.252434	3.322490	0.999962	0.005236	0.007023	-0.005089	0.999770	-0.020831	-0.007130	0.020795	0.999758						
04253														-1.204083	-9.178666	3.322715	0.999954	0.005778	0.007674	-0.005619	0.999772	-0.020594	-0.007791	0.020550	0.999758						
04254														-1.162054	-9.185479	3.329521	0.999949	0.005940	0.008207	-0.005770	0.999772	-0.020552	-0.008327	0.020504	0.999755						
04255														-1.201164	-9.183169	3.326238	0.999942	0.006506	0.008628	-0.006329	0.999772	-0.020380	-0.008759	0.020324	0.999755						
04256														-1.223152	-9.200968	3.280795	0.999933	0.007389	0.008918	-0.007207	0.999769	-0.020231	-0.009065	0.020165	0.999756						
04257														-1.068932	-9.217864	3.363290	0.999924	0.008399	0.009050	-0.008214	0.999760	-0.020312	-0.009218	0.020237	0.999753						
04258														-1.035009	-9.235641	3.416751	0.999919	0.008881	0.009135	-0.008694	0.999757	-0.020260	-0.009313	0.020179	0.999753						
04259														-1.065364	-9.212253	3.427043	0.999915	0.009192	0.009200	-0.009007	0.999759	-0.020044	-0.009382	0.019960	0.999757						
04260														-1.031774	-9.171865	3.364729	0.999911	0.009554	0.009258	-0.009367	0.999755	-0.020045	-0.009447	0.019956	0.999756						
04261														-1.020358	-9.191564	3.411617	0.999913	0.009560	0.009097	-0.009374	0.999752	-0.020208	-0.009287	0.020121	0.999754						
04262														-1.010911	-9.193781	3.389036	0.999919	0.009134	0.008884	-0.008952	0.999753	-0.020323	-0.009068	0.020242	0.999754						
04263														-1.082214	-9.129620	3.441113	0.999922	0.008890	0.008785	-0.008709	0.999753	-0.020438	-0.008964	0.020360	0.999753						
04264														-1.141909	-9.142263	3.428248	0.999923	0.008783	0.008739	-0.008600	0.999747	-0.020801	-0.008920	0.020724	0.999745						
04265														-1.193610	-9.191437	3.433538	0.999917	0.009308	0.008895	-0.009117	0.999732	-0.021302	-0.009091	0.021219	0.999734						
04266														-1.089503	-9.298260	3.450006	0.999917	0.009467	0.008701	-0.009276	0.999721	-0.021734	-0.008904	0.021651	0.999726						
04267														-0.977729	-9.246338	3.425793	0.999925	0.009019	0.008232	-0.008833	0.999710	-0.022395	-0.008432	0.022321	0.999715						
04268														-1.115284	-9.217924	3.412845	0.999939	0.008047	0.007613	-0.007869	0.999701	-0.023144	-0.007797	0.023082	0.999703						
04269														-1.167008	-9.193416	3.368269	0.999953	0.006800	0.006952	-0.006634	0.999699	-0.023632	-0.007111	0.023584	0.999697						
04270														-1.088341	-9.168559	3.292579	0.999960	0.005836	0.006801	-0.005673	0.999702	-0.023758	-0.006938	0.023718	0.999695						
04271														-1.087327	-9.141382	3.345704	0.999966	0.004368	0.007041	-0.004196	0.999697	-0.024257	-0.007144	0.024226	0.999681						
04272														-1.102035	-9.197850	3.354237	0.999971	0.002354	0.007232	-0.002173	0.999686	-0.024949	-0.007289	0.024932	0.999663						
04273														-1.196658	-9.217061	3.423071	0.999973	0.000229	0.007412	-0.000042	0.999681	-0.025253	-0.007415	0.025252	0.999654						
04274														-1.210743	-9.185889	3.374341	0.999970	-0.001400	0.007654	0.001594	0.999678	-0.025309	-0.007616	0.025321	0.999650						
04275														-1.191333	-9.173222	3.420354	0.999966	-0.002425	0.007828	0.002625	0.999667	-0.025686	-0.007763	0.025705	0.999639						
04276														-1.326997	-9.179214	3.421016	0.999964	-0.002645	0.008071	0.002858	0.999646	-0.026439	-0.007998	0.026461	0.999618						
04277														-1.270650	-9.167058	3.289144	0.999964	-0.002201	0.008230	0.002422	0.999635	-0.026922	-0.008168	0.026941	0.999604						
04278														-1.120294	-9.202487	3.381308	0.999964	-0.001335	0.008336	0.001564	0.999620	-0.027508	-0.008296	0.027520	0.999587						
04279														-1.119727	-9.181360	3.326944	0.999963	-0.000533	0.008601	0.000776	0.999597	-0.028380	-0.008582	0.028386	0.999560						
04280														-1.178249	-9.309645	3.258625	0.999960	0.000356	0.008883	-0.000099	0.999581	-0.028929	-0.008889	0.028927	0.999542						
04281														-1.139497	-9.339533	3.255833	0.999957	0.001265	0.009186	-0.001002	0.999591	-0.028584	-0.009219	0.028573	0.999549						
04282														-1.133191	-9.275474	3.248312	0.999951	0.002632	0.009528	-0.002365	0.999608	-0.027893	-0.009598	0.027869	0.999566						
04283														-1.062502	-9.205866	3.287429	0.999943	0.003934	0.009901	-0.003662	0.999621	-0.027300	-0.010005	0.027262	0.999578						
04284														-0.963641	-9.233661	3.391864	0.999930	0.005306	0.010551	-0.005023	0.999631	-0.026706	-0.010689	0.026651	0.999588						
04285														-1.086882	-9.208292	3.370823	0.999912	0.006835	0.011331	-0.006539	0.999642	-0.025949	-0.011504	0.025873	0.999599						
04286														-1.092417	-9.186983	3.315578	0.999899	0.008058	0.011719	-0.007757	0.999645	-0.025492	-0.011920	0.025398	0.999606						
04287														-1.046669	-9.159379	3.338402	0.999890	0.008854	0.011890	-0.008552	0.999646	-0.025176	-0.012109	0.025071	0.999612						
04288														-1.069668	-9.166018	3.418818	0.999883	0.009427	0.012059	-0.009124	0.999649	-0.024867	-0.012289	0.024754	0.999618						
04289														-1.092102	-9.160412	3.395877	0.999879	0.009543	0.012280	-0.009240	0.999657	-0.024515	-0.012509	0.024398	0.999624						
04290														-1.125738	-9.130267	3.372987	0.999877	0.009380	0.012557	-0.009071	0.999660	-0.024426	-0.012782	0.024310	0.999623						
04291														-1.142206	-9.178633	3.380414	0.999874	0.009149	0.012940	-0.008830	0.999660	-0.024523	-0.013160	0.024406	0.999616						
04292														-1.084818	-9.200073	3.377117	0.999872	0.008844	0.013346	-0.008515	0.999664	-0.024496	-0.013559	0.024379	0.999611						
04293														-1.041516	-9.167532	3.389319	0.999870	0.008526	0.013686	-0.008187	0.999664	-0.024599	-0.013891	0.024484	0.999604						
04294														-0.997731	-9.187107	3.363997	0.999869	0.008135	0.013987	-0.007784	0.999657	-0.025018	-0.014185	0.024906	0.999589						
04295														-1.016025	-9.173375	3.298748	0.999873	0.007429	0.014104	-0.007066	0.999647	-0.025606	-0.014290	0.025503	0.999573						
04296														-1.007426	-9.142933	3.334621	0.999882	0.006403	0.013964	-0.006035	0.999636	-0.026304	-0.014128	0.026216	0.999556						
04297														-1.037472	-9.179410	3.267170	0.999889	0.005322	0.013892	-0.004947	0.999624	-0.026956	-0.014030	0.026884	0.999540						
04298														-1.104392	-9.234203	3.387555	0.999894	0.004419	0.013881	-0.004033	0.999607	-0.027724	-0.013998	0.027665	0.999519						
04299														-1.227827	-9.253948	3.297373	0.999893	0.003903	0.014087	-0.003503	0.999593	-0.028308	-0.014192	0.028256	0.999500						
04300														-1.213724	-9.234821	3.307555	0.999894	0.003550	0.014094	-0.003147	0.999589	-0.028491	-0.014189	0.028443	0.999495						
04301														-1.185621	-9.167679	3.457852	0.999897	0.003206	0.014005	-0.002803	0.999584	-0.028717	-0.014092	0.028675	0.999489						
04302														-1.125380	-9.121288	3.369379	0.999899	0.002964	0.013897	-0.002556	0.999568	-0.029263	-0.013978	0.029224	0.999475						
04303														-1.095210	-9.190861	3.312724	0.999899	0.003150	0.013865	-0.002734	0.999549	-0.029909	-0.013953	0.029868	0.999456						
04304														-1.064991	-9.228143	3.387013	0.999900	0.003476	0.013680	-0.003055	0.999525	-0.030683	-0.013780	0.030638	0.999436						
04305														-1.010180	-9.161746	3.460827	0.999903	0.004175	0.013299	-0.003752	0.999493	-0.031632	-0.013425	0.031579	0.999411						
04306														-1.069297	-9.070173	3.468680	0.999907	0.004877	0.012740	-0.004454	0.999444	-0.033053	-0.012894	0.032993	0.999372						
04307														-1.182461	-9.128427	3.326606	0.999907	0.005770	0.012344	-0.005336	0.999378	-0.034856	-0.012538	0.034787	0.999316						
04308														-1.110589	-9.249511	3.261412	0.999908	0.006239	0.012053	-0.005793	0.999309	-0.036724	-0.012274	0.036650	0.999253						
04309														-1.034906	-9.376213	3.204451	0.999910	0.006478	0.011785	-0.006025	0.999257	-0.038073	-0.012023	0.037999	0.999205						
04310														-1.114234	-9.308609	3.185731	0.999913	0.006533	0.011469	-0.006081	0.999220	-0.039027	-0.011715	0.038953	0.999172						
04311														-1.057213	-9.226154	3.245381	0.999918	0.006304	0.011172	-0.005852	0.999181	-0.040028	-0.011415	0.039960	0.999136						
04312														-1.045012	-9.264457	3.164960	0.999922	0.006147	0.010915	-0.005694	0.999141	-0.041048	-0.011158	0.040982	0.999098						
04313														-1.059744	-9.282945	3.176095	0.999924	0.005868	0.010819	-0.005408	0.999097	-0.042134	-0.011056	0.042073	0.999053						
04314														-1.057769	-9.338159	3.157030	0.999927	0.005655	0.010648	-0.005190	0.999051	-0.043251	-0.010883	0.043192	0.999008						
04315														-1.091863	-9.386315	3.134496	0.999930	0.005560	0.010460	-0.005095	0.999019	-0.043996	-0.010694	0.043939	0.998977						
04316														-1.048973	-9.321605	3.128525	0.999933	0.005410	0.010254	-0.004948	0.998994	-0.044577	-0.010485	0.044524	0.998953						
04317														-1.073481	-9.323531	3.075971	0.999937	0.005162	0.009991	-0.004706	0.998971	-0.045109	-0.010213	0.045059	0.998932						
04318														-1.087304	-9.273034	3.128459	0.999940	0.005052	0.009751	-0.004601	0.998944	-0.045710	-0.009972	0.045663	0.998907						
04319														-0.996254	-9.268403	3.110569	0.999947	0.004535	0.009285	-0.004098	0.998907	-0.046562	-0.009486	0.046522	0.998872						
04320														-1.040896	-9.302319	3.061792	0.999954	0.003974	0.008691	-0.003557	0.998869	-0.047411	-0.008869	0.047378	0.998838						
04321														-1.031862	-9.307800	3.072686	0.999958	0.003821	0.008387	-0.003409	0.998817	-0.048508	-0.008563	0.048477	0.998788						
04322														-0.989186	-9.245033	3.091717	0.999961	0.003682	0.007976	-0.003284	0.998775	-0.049367	-0.008148	0.049339	0.998749						
04323														-1.031862	-9.235403	3.099276	0.999970	0.002936	0.007202	-0.002570	0.998730	-0.050312	-0.007340	0.050292	0.998708						
04324														-1.051984	-9.230424	3.103788	0.999974	0.003017	0.006592	-0.002674	0.998667	-0.051551	-0.006739	0.051532	0.998649						
04325														-1.085889	-9.151647	2.997392	0.999971	0.004204	0.006353	-0.003859	0.998564	-0.053428	-0.006568	0.053402	0.998552						
04326														-1.038469	-9.143353	3.098869	0.999964	0.006039	0.005936	-0.005696	0.998403	-0.056214	-0.006266	0.056178	0.998401						
04327														-0.966962	-9.176509	3.037306	0.999947	0.008794	0.005406	-0.008455	0.998179	-0.059724	-0.005922	0.059675	0.998200						
04328														-0.993489	-9.194855	2.855766	0.999909	0.012602	0.004759	-0.012272	0.997869	-0.064080	-0.005556	0.064015	0.997933						
04329														-0.962260	-9.249011	2.688831	0.999836	0.017678	0.003930	-0.017364	0.997449	-0.069245	-0.005144	0.069165	0.997592						
04330														-0.870164	-9.494556	2.764624	0.999723	0.023331	0.003068	-0.023038	0.996965	-0.074369	-0.004793	0.074278	0.997226						
04331														-0.932216	-9.714497	2.707348	0.999573	0.029108	0.002522	-0.028820	0.996495	-0.078534	-0.004799	0.078428	0.996908						
04332														-0.844017	-9.652965	2.620631	0.999390	0.034883	0.001788	-0.034620	0.996058	-0.081665	-0.004629	0.081553	0.996658						
04333														-0.811295	-9.458749	2.653818	0.999164	0.040863	0.001310	-0.040609	0.995640	-0.083980	-0.004736	0.083856	0.996467						
04334														-0.952084	-9.391082	2.710641	0.998926	0.046311	0.001126	-0.046044	0.995236	-0.085932	-0.005100	0.085788	0.996300						
04335														-1.023423	-9.478230	2.671838	0.998687	0.051214	0.001104	-0.050922	0.994876	-0.087339	-0.005571	0.087168	0.996178						
04336														-1.142371	-9.521869	2.682901	0.998443	0.055759	0.001280	-0.055431	0.994592	-0.087834	-0.006171	0.087626	0.996134						
04337														-1.285007	-9.455447	2.788683	0.998220	0.059624	0.001073	-0.059298	0.994354	-0.088000	-0.006314	0.087780	0.996120						
04338														-1.086509	-9.547798	3.023767	0.998093	0.061726	0.000025	-0.061482	0.994184	-0.088418	-0.005483	0.088248	0.996083						
04339														-1.064745	-9.641007	2.654181	0.998030	0.062730	-0.001278	-0.062590	0.993969	-0.090050	-0.004379	0.089952	0.995936						
04340														-1.249756	-9.648464	2.361967	0.998017	0.062892	-0.002461	-0.062848	0.993684	-0.092961	-0.003401	0.092931	0.995667						
04341														-1.325577	-9.551237	2.138797	0.998027	0.062687	-0.003426	-0.062725	0.993390	-0.096137	-0.002624	0.096162	0.995362						
04342														-1.349559	-9.448832	2.099809	0.997999	0.063080	-0.004251	-0.063190	0.993067	-0.099124	-0.002032	0.099195	0.995066						
04343														-1.383283	-9.342295	2.121912	0.997879	0.064888	-0.005207	-0.065081	0.992695	-0.101592	-0.001423	0.101715	0.994813						
04344														-1.289921	-9.089804	2.165289	0.997654	0.068160	-0.006414	-0.068457	0.992237	-0.103819	-0.000712	0.104014	0.994576						
04345														-1.261032	-8.909823	2.254650	0.997344	0.072388	-0.008056	-0.072834	0.991616	-0.106738	0.000262	0.107042	0.994254						
04346														-1.383141	-8.990151	2.469040	0.996956	0.077273	-0.010408	-0.077951	0.990778	-0.110828	0.001748	0.111302	0.993785						
04347														-1.483762	-9.323180	2.550361	0.996433	0.083295	-0.013521	-0.084303	0.989671	-0.115952	0.003723	0.116679	0.993163						
04348														-1.525428	-9.715183	2.532447	0.995689	0.091322	-0.016263	-0.092624	0.988295	-0.121219	0.005003	0.122203	0.992493						
04349														-1.461930	-9.711009	2.550530	0.994797	0.100319	-0.017769	-0.101765	0.986741	-0.126434	0.004850	0.127584	0.991816						
04350														-1.391446	-9.635081	2.431357	0.993737	0.110334	-0.017677	-0.111704	0.984956	-0.131849	0.002863	0.132998	0.991112						
04351														-1.358611	-9.449473	2.293232	0.992444	0.121516	-0.017015	-0.122701	0.982739	-0.138447	-0.000102	0.139488	0.990224						
04352														-1.375476	-9.377529	2.115876	0.990949	0.133219	-0.016542	-0.134203	0.980129	-0.146072	-0.003246	0.146970	0.989136						
04353														-1.321196	-9.082073	1.921027	0.989297	0.144980	-0.016531	-0.145785	0.977168	-0.154561	-0.006255	0.155317	0.987845						
04354														-1.317217	-8.803826	1.821927	0.987523	0.156606	-0.016546	-0.157192	0.973949	-0.163446	-0.009482	0.164007	0.986414						
04355														-1.276053	-8.623922	1.780351	0.985789	0.167189	-0.016388	-0.167494	0.970692	-0.172346	-0.012907	0.172641	0.984900						
04356														-1.356317	-8.523059	1.770394	0.983990	0.177486	-0.016197	-0.177459	0.967302	-0.181205	-0.016494	0.181178	0.983312						
04357														-1.516453	-8.873791	1.843854	0.982229	0.186979	-0.016265	-0.186636	0.963922	-0.189792	-0.019809	0.189455	0.981690						
04358														-1.561589	-9.749869	2.262025	0.980601	0.195283	-0.016897	-0.194740	0.960800	-0.197330	-0.022301	0.196792	0.980192						
04359														-1.712585	-10.613206	2.486241	0.979160	0.202276	-0.018160	-0.201731	0.958390	-0.201974	-0.023450	0.201428	0.979222						
04360														-1.899363	-11.211022	2.863412	0.978155	0.206926	-0.019845	-0.206604	0.957191	-0.202733	-0.022955	0.202404	0.979033						
04361														-2.037781	-10.939431	2.923985	0.977615	0.209320	-0.021302	-0.209286	0.957023	-0.200765	-0.021638	0.200729	0.979408						
04362														-2.133556	-10.196363	2.886821	0.977523	0.209651	-0.022244	-0.209861	0.957516	-0.197793	-0.020168	0.198015	0.979991						
04363														-2.331574	-9.452346	3.017486	0.977673	0.208897	-0.022764	-0.209280	0.958215	-0.195004	-0.018923	0.195414	0.980538						
04364														-2.305585	-8.673394	2.983132	0.977820	0.208181	-0.022995	-0.208658	0.958723	-0.193163	-0.018167	0.193676	0.980897						
04365														-2.316162	-8.209476	2.555892	0.977889	0.207806	-0.023462	-0.208390	0.958896	-0.192591	-0.017524	0.193222	0.980999						
04366														-2.344075	-7.986995	2.507896	0.977951	0.207372	-0.024672	-0.208189	0.958823	-0.193173	-0.016403	0.194050	0.980854						
04367														-2.321110	-8.046398	2.265510	0.978538	0.204294	-0.026968	-0.205600	0.959130	-0.194415	-0.013852	0.195787	0.980549						
04368														-2.150597	-8.438268	2.017062	0.979914	0.197198	-0.029686	-0.199165	0.960235	-0.195659	-0.010078	0.197642	0.980223						
04369														-2.109897	-8.845111	2.067449	0.981906	0.186704	-0.031649	-0.189266	0.962113	-0.196257	-0.006192	0.198696	0.980042						
04370														-2.298506	-9.390395	2.280000	0.984269	0.173724	-0.032159	-0.176653	0.964804	-0.194801	-0.002815	0.197418	0.980315						
04371														-2.339416	-10.111771	2.676267	0.986501	0.160741	-0.031276	-0.163754	0.967683	-0.191765	-0.000559	0.194298	0.980942						
04372														-2.066089	-10.884288	2.388382	0.988682	0.147070	-0.029633	-0.150021	0.970673	-0.187852	0.001136	0.190171	0.981750						
04373														-1.564794	-10.028326	1.603461	0.990772	0.132651	-0.027848	-0.135516	0.973531	-0.184047	0.002696	0.186123	0.982523						
04374														-0.962738	-10.478901	1.482704	0.992765	0.117154	-0.026334	-0.120008	0.975475	-0.184518	0.004071	0.186343	0.982476						
04375														-0.518175	-11.483412	1.422920	0.994760	0.099271	-0.024453	-0.102099	0.977040	-0.186996	0.005328	0.188513	0.982056						
04376														-0.564057	-11.570679	1.125911	0.996614	0.079234	-0.021946	-0.081946	0.978935	-0.187003	0.006667	0.188168	0.982114						
04377														-0.561874	-10.911351	1.049738	0.998184	0.057218	-0.018839	-0.059710	0.981140	-0.183844	0.007965	0.184635	0.982775						
04378														-0.129233	-10.243077	1.442011	0.999316	0.032928	-0.016831	-0.035420	0.983074	-0.179753	0.010627	0.180226	0.983568						
04379														0.111031	-9.610947	1.817618	0.999842	0.008956	-0.015362	-0.011537	0.984116	-0.177149	0.013532	0.177298	0.984064						
04380														0.163452	-9.533766	1.799327	0.999808	-0.013826	-0.013877	0.011159	0.984218	-0.176609	0.016100	0.176421	0.984183						
04381														-0.285811	-9.797459	1.792298	0.999262	-0.036362	-0.012349	0.033602	0.983599	-0.177213	0.018590	0.176668	0.984095						
04382														-0.376117	-9.900057	1.745747	0.998196	-0.059001	-0.011123	0.056081	0.982393	-0.178211	0.021442	0.177266	0.983929						
04383														-0.172139	-10.016019	1.655458	0.996520	-0.082726	-0.010197	0.079567	0.980565	-0.179336	0.024835	0.177901	0.983735						
04384														-0.125698	-10.030257	1.721923	0.994339	-0.105757	-0.010294	0.102236	0.978613	-0.178506	0.028952	0.176443	0.983885						
04385														-0.154303	-9.387422	2.048300	0.991737	-0.127898	-0.009947	0.124110	0.976198	-0.177859	0.032458	0.175155	0.984006						
04386														-0.316631	-9.093637	2.099407	0.988858	-0.148561	-0.009424	0.144532	0.973338	-0.178110	0.035633	0.174764	0.983965						
04387														-0.517345	-8.806253	1.975698	0.985992	-0.166507	-0.009783	0.162113	0.970469	-0.178629	0.039237	0.174541	0.983868						
04388														-0.724328	-8.512036	1.926792	0.983451	-0.180826	-0.011249	0.175934	0.967983	-0.179041	0.043264	0.174099	0.983777						
04389														-0.614615	-8.343917	2.248326	0.981468	-0.191123	-0.013879	0.185593	0.966100	-0.179458	0.047707	0.173556	0.983668						
04390														-0.606514	-8.191129	1.993521	0.980202	-0.197272	-0.016979	0.190993	0.964638	-0.181647	0.052212	0.174808	0.983217						
04391														-0.917669	-8.238395	1.897054	0.979648	-0.199720	-0.020062	0.192706	0.963771	-0.184415	0.056167	0.176795	0.982644						
04392														-0.927511	-8.542261	2.072566	0.979901	-0.198155	-0.022991	0.190525	0.963805	-0.186493	0.059114	0.178364	0.982187						
04393														-0.866993	-8.716734	2.030037	0.980847	-0.193063	-0.025802	0.184950	0.964692	-0.187516	0.061093	0.179153	0.981923						
04394														-0.827249	-8.692005	1.772142	0.982232	-0.185544	-0.028167	0.177109	0.966098	-0.187851	0.062067	0.179525	0.981794						
04395														-0.955313	-8.560624	1.632886	0.984002	-0.175624	-0.029928	0.167014	0.967830	-0.188180	0.062014	0.180171	0.981678						
04396														-1.412389	-10.051330	2.026439	0.986250	-0.162411	-0.030556	0.153853	0.969844	-0.189029	0.060335	0.181729	0.981496						
04397														-1.659901	-12.017691	2.196489	0.988574	-0.147532	-0.030913	0.139128	0.971970	-0.189520	0.058007	0.183053	0.981390						
04398														-1.181007	-11.755297	1.599950	0.990359	-0.134634	-0.032604	0.126254	0.974120	-0.187482	0.057001	0.181558	0.981727						
04399														-1.681217	-10.761576	1.384847	0.992210	-0.120037	-0.033308	0.111943	0.976462	-0.184367	0.054655	0.179202	0.982293						
04400														-2.509920	-10.011045	1.300908	0.994104	-0.103340	-0.032843	0.095824	0.978996	-0.179956	0.050750	0.175748	0.983126						
04401														-2.814675	-9.129405	1.319661	0.995956	-0.083862	-0.032241	0.076982	0.981546	-0.175046	0.046325	0.171856	0.984032						
04402														-2.914311	-8.709785	1.409819	0.997499	-0.062717	-0.032586	0.056228	0.983536	-0.171741	0.042821	0.169480	0.984603						
04403														-2.514723	-9.267192	1.563538	0.998618	-0.041116	-0.032745	0.034955	0.984744	-0.170465	0.039255	0.169085	0.984820						
04404														-2.127028	-10.300657	1.670513	0.999298	-0.019211	-0.032151	0.013401	0.984999	-0.172037	0.034974	0.171486	0.984566						
04405														-2.137365	-10.877463	1.629869	0.999512	0.002083	-0.031173	-0.007493	0.984636	-0.174457	0.030331	0.174605	0.984171						
04406														-2.282789	-10.776795	1.583764	0.999305	0.022406	-0.029802	-0.027277	0.984256	-0.174632	0.025420	0.175324	0.984183						
04407														-2.490275	-10.267519	1.741751	0.998759	0.040902	-0.028419	-0.045223	0.983821	-0.173355	0.020869	0.174425	0.984449						
04408														-2.492784	-9.647845	1.915402	0.997932	0.058251	-0.027189	-0.062074	0.983132	-0.172039	0.016709	0.173371	0.984715						
04409														-2.364784	-9.266216	2.234091	0.996814	0.075400	-0.026019	-0.078754	0.982096	-0.171132	0.012650	0.172636	0.984905						
04410														-2.161195	-8.927880	2.322248	0.995479	0.091601	-0.025116	-0.094565	0.980579	-0.171823	0.008889	0.173422	0.984808						
04411														-2.022729	-8.838425	2.108566	0.994060	0.105997	-0.024698	-0.108683	0.978815	-0.173518	0.005782	0.175172	0.984521						
04412														-2.045561	-8.903420	2.015667	0.992598	0.118931	-0.024577	-0.121404	0.976942	-0.175630	0.003122	0.177314	0.984149						
04413														-2.161654	-8.886383	1.911654	0.991030	0.131300	-0.024887	-0.133634	0.974947	-0.177819	0.000916	0.179550	0.983748						
04414														-2.281659	-8.804617	2.238606	0.989593	0.141607	-0.025571	-0.143896	0.973319	-0.178729	-0.000420	0.180548	0.983566						
04415														-2.204199	-8.759625	2.438397	0.988457	0.149081	-0.026959	-0.151499	0.972193	-0.178573	-0.000412	0.180596	0.983557						
04416														-1.761938	-8.529507	1.961693	0.987861	0.152661	-0.028733	-0.155340	0.971658	-0.178185	0.000717	0.180485	0.983577						
04417														-1.516073	-8.631231	1.874164	0.987717	0.153346	-0.030006	-0.156243	0.971569	-0.177882	0.001875	0.180385	0.983594						
04418														-1.742583	-8.801308	1.975127	0.987996	0.151385	-0.030751	-0.154448	0.971842	-0.177960	0.002945	0.180573	0.983557						
04419														-2.072254	-8.777575	1.988779	0.988562	0.147618	-0.030900	-0.150768	0.972519	-0.177416	0.003861	0.180046	0.983651						
04420														-1.949127	-8.676235	2.209462	0.989318	0.142550	-0.030494	-0.145703	0.973568	-0.175887	0.004615	0.178451	0.983938						
04421														-1.750354	-8.702042	2.406890	0.990300	0.135849	-0.029160	-0.138854	0.975153	-0.172617	0.004985	0.174992	0.984557						
04422														-1.632259	-8.775570	2.454635	0.991449	0.127604	-0.027309	-0.130385	0.977223	-0.167437	0.005321	0.169566	0.985504						
04423														-1.601254	-9.002316	2.458602	0.992683	0.117910	-0.026024	-0.120574	0.979521	-0.161249	0.006478	0.163207	0.986571						
04424														-1.352340	-10.703791	2.820462	0.993903	0.107211	-0.025739	-0.109942	0.981322	-0.157862	0.008334	0.159729	0.987126						
04425														-1.303466	-10.024687	2.221849	0.994876	0.097936	-0.025117	-0.100672	0.982531	-0.156521	0.009349	0.158248	0.987355						
04426														-1.519851	-10.521615	1.755364	0.995935	0.085898	-0.027119	-0.089155	0.982979	-0.160636	0.012859	0.162401	0.986641						
04427														-0.489428	-11.512288	1.287011	0.997165	0.069081	-0.029828	-0.073102	0.983331	-0.166479	0.017830	0.168188	0.985594						
04428														-0.168332	-11.522553	1.067167	0.998224	0.050988	-0.030818	-0.055476	0.984093	-0.168770	0.021722	0.170180	0.985174						
04429														-0.318221	-10.825253	1.278491	0.999012	0.031344	-0.031517	-0.036193	0.985219	-0.167430	0.025803	0.168405	0.985380						
04430														-1.083953	-10.003824	1.653600	0.999383	0.011714	-0.033103	-0.017056	0.985973	-0.166028	0.030694	0.166491	0.985565						
04431														-1.235946	-9.911594	1.942626	0.999342	-0.007281	-0.035523	0.001221	0.985839	-0.167689	0.036241	0.167535	0.985200						
04432														-1.128755	-10.477424	1.788051	0.998996	-0.023998	-0.037827	0.017169	0.985037	-0.171486	0.041377	0.170665	0.984460						
04433														-1.164224	-10.911955	1.569890	0.998495	-0.037617	-0.039905	0.030101	0.984183	-0.174579	0.045841	0.173115	0.983834						
04434														-0.803644	-10.092968	1.823470	0.997836	-0.051018	-0.041489	0.042996	0.983560	-0.175389	0.049755	0.173226	0.983625						
04435														-0.361490	-9.320342	2.016379	0.996959	-0.065452	-0.042295	0.057030	0.982665	-0.176399	0.053107	0.173450	0.983410						
04436														-0.383670	-9.007912	2.056352	0.995779	-0.081316	-0.042574	0.072540	0.981391	-0.177793	0.056239	0.173954	0.983146						
04437														-0.378871	-9.002945	2.265570	0.994151	-0.099155	-0.042807	0.089987	0.979660	-0.179358	0.059720	0.174457	0.982852						
04438														-0.237226	-8.943681	2.155846	0.991731	-0.120713	-0.043569	0.111004	0.977232	-0.180818	0.064404	0.174487	0.982551						
04439														-0.033447	-8.532190	1.691677	0.988443	-0.145177	-0.043624	0.135050	0.974058	-0.181585	0.068854	0.173595	0.982407						
04440														-0.112281	-8.222321	1.615546	0.984710	-0.168977	-0.042346	0.158482	0.969891	-0.184919	0.072318	0.175380	0.981841						
04441														-0.702504	-8.201573	1.581902	0.981160	-0.189034	-0.039882	0.178224	0.965310	-0.190823	0.074571	0.180120	0.980814						
04442														-1.503475	-8.888515	1.684354	0.978064	-0.204858	-0.037733	0.193665	0.960993	-0.197452	0.076711	0.185813	0.979586						
04443														-1.635903	-9.844577	1.716940	0.975640	-0.216253	-0.036907	0.204725	0.957946	-0.201066	0.078836	0.188612	0.978882						
04444														-1.137265	-10.270806	1.979124	0.974182	-0.222720	-0.036942	0.211100	0.956643	-0.200674	0.080035	0.187694	0.978961						
04445														-0.964115	-10.195231	2.212855	0.973703	-0.224803	-0.036970	0.213422	0.956844	-0.197230	0.079713	0.184153	0.979660						
04446														-0.998029	-9.631395	2.384671	0.973898	-0.223947	-0.037013	0.213033	0.958090	-0.191520	0.078352	0.178636	0.980790						
04447														-1.048394	-9.020792	2.514084	0.974693	-0.220379	-0.037493	0.210018	0.960198	-0.184155	0.076585	0.171620	0.982182						
04448														-1.063134	-8.636388	2.459203	0.976182	-0.213606	-0.037961	0.203951	0.963184	-0.175161	0.073979	0.163247	0.983808						
04449														-1.056689	-8.509864	2.109945	0.978361	-0.203422	-0.037817	0.194681	0.966939	-0.164708	0.070072	0.153782	0.985617						
04450														-1.314077	-8.857826	2.174780	0.981348	-0.188740	-0.036508	0.181056	0.971269	-0.154450	0.064610	0.144959	0.987326						
04451														-2.126814	-9.604587	2.053637	0.984603	-0.171408	-0.034291	0.164637	0.975243	-0.147635	0.058748	0.139716	0.988447						
04452														-2.608335	-9.635288	1.710074	0.987832	-0.152109	-0.032419	0.145924	0.978592	-0.145132	0.053801	0.138636	0.988881						
04453														-2.830841	-10.073527	1.452920	0.991135	-0.129103	-0.031350	0.123296	0.981737	-0.144883	0.049482	0.139733	0.988952						
04454														-3.258800	-10.348609	1.268691	0.994080	-0.103759	-0.032231	0.098092	0.984644	-0.144406	0.046720	0.140390	0.988993						
04455														-3.207238	-10.770147	1.697148	0.996354	-0.077960	-0.034658	0.072266	0.987101	-0.142863	0.045349	0.139837	0.989135						
04456														-2.511609	-11.292655	2.144509	0.997864	-0.053966	-0.036798	0.048303	0.988909	-0.140448	0.043969	0.138370	0.989404						
04457														-1.791742	-11.793344	2.317175	0.998772	-0.032384	-0.037494	0.026887	0.989953	-0.138817	0.041613	0.137639	0.989608						
04458														-1.598738	-11.376135	2.170476	0.999232	-0.013654	-0.036721	0.008438	0.990311	-0.138614	0.038258	0.138198	0.989665						
04459														-2.081333	-10.679432	2.219440	0.999385	0.002238	-0.034981	-0.007046	0.990417	-0.137929	0.034338	0.138090	0.989824						
04460														-2.466767	-9.753617	2.424699	0.999300	0.016152	-0.033733	-0.020611	0.990449	-0.136331	0.031209	0.136931	0.990089						
04461														-2.493584	-8.797635	2.415680	0.999039	0.029133	-0.032732	-0.033314	0.990221	-0.135468	0.028466	0.136429	0.990241						
04462														-2.305795	-8.186677	2.357373	0.998618	0.042054	-0.031523	-0.045968	0.989646	-0.135972	0.025478	0.137233	0.990211						
04463														-2.189335	-8.052210	2.280259	0.998047	0.054743	-0.030093	-0.058401	0.988651	-0.138415	0.022174	0.139902	0.989917						
04464														-2.241493	-7.876049	2.223449	0.997331	0.067075	-0.028850	-0.070504	0.987408	-0.141615	0.018988	0.143271	0.989501						
04465														-2.323291	-7.869886	2.027448	0.996493	0.078856	-0.027974	-0.082112	0.985891	-0.145862	0.016077	0.147648	0.988909						
04466														-2.407451	-7.870666	1.929907	0.995525	0.090192	-0.028215	-0.093430	0.984188	-0.150485	0.014197	0.152448	0.988210						
04467														-2.607887	-8.122986	2.071254	0.994489	0.100563	-0.029653	-0.103983	0.982224	-0.156283	0.013410	0.158505	0.987267						
04468														-2.454908	-8.611245	2.100446	0.993397	0.110328	-0.031482	-0.114004	0.980060	-0.162745	0.012899	0.165259	0.986166						
04469														-2.089145	-9.069459	2.028348	0.992392	0.118628	-0.032938	-0.122503	0.978116	-0.168170	0.012268	0.170925	0.985208						
04470														-1.649093	-9.256393	2.025670	0.991716	0.124009	-0.033478	-0.127943	0.976769	-0.171910	0.011382	0.174769	0.984544						
04471														-1.543993	-9.417795	1.962266	0.991478	0.125969	-0.033215	-0.129852	0.976128	-0.174104	0.010490	0.176934	0.984167						
04472														-1.557343	-9.538920	1.865239	0.991725	0.124224	-0.032408	-0.127998	0.976241	-0.174843	0.009918	0.177545	0.984063						
04473														-1.703826	-9.578825	2.022536	0.992461	0.118450	-0.031467	-0.122135	0.977207	-0.173637	0.010182	0.176171	0.984307						
04474														-1.718244	-9.416333	2.269579	0.993580	0.109023	-0.030219	-0.112591	0.979024	-0.169810	0.011072	0.172123	0.985013						
04475														-1.765217	-9.413040	2.481986	0.994879	0.096804	-0.029078	-0.100280	0.981368	-0.163892	0.012671	0.165969	0.986050						
04476														-1.862523	-9.485019	2.569763	0.996073	0.083927	-0.028181	-0.087335	0.983669	-0.157376	0.014513	0.159219	0.987137						
04477														-2.027651	-9.469550	2.326446	0.997013	0.072280	-0.027202	-0.075604	0.985367	-0.152764	0.015762	0.154364	0.987888						
04478														-1.749385	-8.924843	1.879135	0.997756	0.061786	-0.025789	-0.064988	0.986370	-0.151166	0.016098	0.152503	0.988172						
04479														-1.112866	-9.843803	1.673699	0.998396	0.051106	-0.024361	-0.054251	0.986650	-0.153550	0.016188	0.154625	0.987841						
04480														-0.629979	-10.990500	1.792406	0.998943	0.040086	-0.022516	-0.043141	0.986566	-0.157564	0.015898	0.158369	0.987252						
04481														-0.810412	-10.779390	1.410171	0.999379	0.028470	-0.020757	-0.031419	0.986721	-0.159358	0.015945	0.159911	0.987003						
04482														-0.680639	-10.167626	1.393994	0.999662	0.015407	-0.020933	-0.018550	0.987040	-0.159400	0.018206	0.159734	0.986992						
04483														-0.194679	-10.012335	1.930456	0.999726	0.000995	-0.023381	-0.004710	0.987212	-0.159345	0.022924	0.159412	0.986946						
04484														-0.387776	-10.066097	2.153552	0.999555	-0.013752	-0.026477	0.009335	0.987033	-0.160244	0.028338	0.159925	0.986722						
04485														-0.663759	-10.427922	2.412898	0.999216	-0.027525	-0.028443	0.022554	0.986482	-0.162311	0.032526	0.161542	0.986330						
04486														-0.610909	-10.701718	2.531538	0.998702	-0.041688	-0.029278	0.036284	0.985530	-0.165572	0.035756	0.164295	0.985763						
04487														-0.468948	-10.628478	2.166419	0.997986	-0.056414	-0.029019	0.050707	0.984221	-0.169521	0.038125	0.167708	0.985099						
04488														-0.317323	-10.300803	1.999911	0.997101	-0.070866	-0.027705	0.065007	0.982627	-0.173832	0.039542	0.171527	0.984386						
04489														-0.315851	-9.897983	2.135212	0.995995	-0.085736	-0.025368	0.079842	0.980556	-0.179264	0.040244	0.176521	0.983474						
04490														-0.407776	-9.378135	2.229882	0.994664	-0.100870	-0.021672	0.095165	0.978134	-0.184926	0.039852	0.181876	0.982513						
04491														-0.664954	-8.940624	2.093393	0.993213	-0.115037	-0.017138	0.109702	0.975534	-0.190522	0.038635	0.187349	0.981533						
04492														-0.930807	-8.434795	1.851103	0.991815	-0.126990	-0.013292	0.121954	0.972993	-0.195991	0.037822	0.192766	0.980516						
04493														-1.026677	-8.303948	1.777323	0.990549	-0.136760	-0.010477	0.131872	0.970579	-0.201462	0.037721	0.198176	0.979440						
04494														-0.898062	-8.509291	1.807701	0.989671	-0.143134	-0.008027	0.138453	0.968827	-0.205436	0.037182	0.202203	0.978638						
04495														-0.766459	-8.818187	1.655483	0.989192	-0.146481	-0.006455	0.141959	0.967814	-0.207806	0.036686	0.204643	0.978149						
04496														-0.494736	-8.948042	1.781131	0.989202	-0.146449	-0.005725	0.142083	0.967829	-0.207653	0.035951	0.204597	0.978186						
04497														-0.229121	-9.058309	1.783558	0.989603	-0.143727	-0.005382	0.139542	0.968507	-0.206210	0.034850	0.203315	0.978493						
04498														-0.193147	-9.324587	1.824872	0.990208	-0.139494	-0.005421	0.135481	0.969632	-0.203616	0.033659	0.200888	0.979036						
04499														-0.294233	-9.499738	1.934100	0.990920	-0.134325	-0.005799	0.130515	0.971382	-0.198453	0.032290	0.195894	0.980093						
04500														-0.528415	-9.329210	2.136205	0.991742	-0.128100	-0.006254	0.124572	0.973733	-0.190592	0.030504	0.188239	0.981649						
04501														-0.873154	-9.374239	2.332292	0.992651	-0.120843	-0.006411	0.117689	0.976363	-0.181285	0.028167	0.179198	0.983410						
04502														-1.381669	-9.799321	2.437830	0.993454	-0.114026	-0.006901	0.111100	0.978485	-0.173851	0.026576	0.171946	0.984748						
04503														-1.568454	-9.936573	2.246615	0.994058	-0.108547	-0.008175	0.105621	0.979979	-0.168778	0.026332	0.166912	0.985620						
04504														-1.789716	-10.121595	1.844275	0.994971	-0.099741	-0.009139	0.096845	0.981318	-0.166241	0.025549	0.164520	0.986043						
04505														-2.405508	-9.879808	1.724036	0.996232	-0.086158	-0.009976	0.083336	0.982735	-0.165190	0.024036	0.163736	0.986211						
04506														-2.837734	-9.620790	1.935289	0.997466	-0.070377	-0.010407	0.067697	0.983919	-0.165288	0.021872	0.164164	0.986190						
04507														-2.394181	-8.831618	1.897800	0.998550	-0.053077	-0.008994	0.050819	0.984503	-0.167842	0.017764	0.167141	0.985773						
04508														-2.017078	-9.164668	1.555726	0.999421	-0.033624	-0.005166	0.032209	0.984153	-0.174369	0.010947	0.174102	0.984667						
04509														-1.985383	-10.272573	1.557726	0.999904	-0.013844	-0.000183	0.013575	0.982944	-0.183405	0.002719	0.183385	0.983037						
04510														-2.152504	-11.582727	1.466804	0.999984	0.004475	0.003510	-0.003718	0.981406	-0.191905	-0.004303	0.191889	0.981407						
04511														-2.185841	-11.617092	1.533676	0.999766	0.021239	0.004111	-0.020006	0.980032	-0.197833	-0.008231	0.197705	0.980227						
04512														-2.335823	-11.206836	1.502072	0.999341	0.036103	0.003700	-0.034635	0.979201	-0.199913	-0.010841	0.199653	0.979807						
04513														-2.286815	-10.501441	1.711589	0.998788	0.049114	0.003156	-0.047501	0.978776	-0.199350	-0.012880	0.198959	0.979923						
04514														-2.079244	-9.701620	1.951540	0.998100	0.061558	0.002570	-0.059829	0.978342	-0.198158	-0.014712	0.197628	0.980167						
04515														-2.116526	-9.229082	1.934254	0.997267	0.073846	0.002342	-0.071931	0.977672	-0.197443	-0.016870	0.196735	0.980312						
04516														-2.143723	-9.001783	1.710836	0.996307	0.085824	0.002588	-0.083638	0.976864	-0.196830	-0.019421	0.195887	0.980434						
04517														-1.953433	-8.868413	1.642883	0.995238	0.097429	0.002970	-0.094958	0.975972	-0.196115	-0.022006	0.194899	0.980576						
04518														-1.588051	-8.671337	1.666686	0.994133	0.108125	0.002911	-0.105469	0.974986	-0.195651	-0.023993	0.194196	0.980669						
04519														-1.471077	-8.558367	1.640565	0.993086	0.117374	0.001875	-0.114756	0.974057	-0.195046	-0.024720	0.193483	0.980792						
04520														-1.415428	-8.485138	1.911707	0.992240	0.124336	-0.000039	-0.121981	0.973389	-0.193997	-0.024083	0.192496	0.981002						
04521														-1.235229	-8.379929	1.987095	0.991727	0.128350	-0.001965	-0.126324	0.973121	-0.192557	-0.022802	0.191212	0.981284						
04522														-1.308302	-8.246113	1.800046	0.991622	0.129124	-0.003699	-0.127450	0.973297	-0.190918	-0.021052	0.189790	0.981599						
04523														-1.432726	-8.399978	1.828600	0.991947	0.126530	-0.005522	-0.125295	0.974036	-0.188563	-0.018480	0.187736	0.982046						
04524														-1.620167	-8.553724	1.958627	0.992637	0.120861	-0.008023	-0.120256	0.975407	-0.184716	-0.014500	0.184321	0.982759						
04525														-1.623254	-8.549353	2.169206	0.993599	0.112435	-0.010966	-0.112578	0.977431	-0.178762	-0.009380	0.178852	0.983831						
04526														-1.462264	-8.993401	2.448590	0.994749	0.101312	-0.014477	-0.102289	0.979749	-0.172131	-0.003255	0.172708	0.984968						
04527														-1.323516	-9.909331	2.653385	0.995892	0.088475	-0.019251	-0.090450	0.981872	-0.166574	0.004164	0.167631	0.985841						
04528														-1.501301	-10.175834	2.213692	0.996867	0.075346	-0.024047	-0.078263	0.983598	-0.162512	0.011408	0.163885	0.986414						
04529														-1.233626	-9.172887	1.726209	0.997739	0.060843	-0.028548	-0.064673	0.984737	-0.161587	0.018281	0.163068	0.986445						
04530														-0.318684	-9.730081	1.206476	0.998544	0.043273	-0.032204	-0.048027	0.985028	-0.165569	0.024557	0.166874	0.985672						
04531														0.034343	-11.444720	1.230607	0.999117	0.024539	-0.034117	-0.030064	0.984595	-0.172248	0.029364	0.173121	0.984463						
04532														-0.720480	-12.033837	1.216851	0.999408	0.006678	-0.033747	-0.012532	0.984245	-0.176363	0.032038	0.176682	0.983746						
04533														-1.447017	-11.713450	1.431804	0.999382	-0.013062	-0.032622	0.007111	0.984317	-0.176264	0.034412	0.175923	0.983802						
04534														-1.117200	-11.158394	1.626709	0.998813	-0.034844	-0.034046	0.028336	0.984018	-0.175801	0.039628	0.174628	0.983837						
04535														-1.047220	-11.169120	1.842179	0.997825	-0.054563	-0.036977	0.047240	0.983240	-0.176089	0.045965	0.173959	0.983680						
04536														-1.112001	-10.799655	2.345371	0.996514	-0.073697	-0.039086	0.065692	0.982051	-0.176803	0.051414	0.173619	0.983470						
04537														-1.211556	-10.245266	2.254816	0.994840	-0.093329	-0.039798	0.084887	0.980479	-0.177355	0.055574	0.173061	0.983342						
04538														-1.274600	-9.841643	1.961235	0.993033	-0.110895	-0.039851	0.102213	0.978893	-0.176980	0.058636	0.171673	0.983407						
04539														-1.244048	-9.165492	2.037029	0.991314	-0.125362	-0.039767	0.116572	0.977526	-0.175653	0.060894	0.169492	0.983649						
04540														-0.997082	-8.563347	2.250020	0.989637	-0.138131	-0.039233	0.129302	0.976058	-0.174905	0.062453	0.168019	0.983803						
04541														-0.650578	-8.383026	2.367694	0.987969	-0.149988	-0.037692	0.141245	0.974372	-0.175066	0.062984	0.167636	0.983835						
04542														-0.626926	-8.307195	2.179443	0.986445	-0.160316	-0.035004	0.151815	0.972593	-0.176113	0.062279	0.168411	0.983747						
04543														-0.817005	-8.182216	2.029228	0.985089	-0.169082	-0.031800	0.160871	0.970762	-0.178164	0.060994	0.170392	0.983487						
04544														-1.040861	-8.210438	1.922819	0.983986	-0.175936	-0.028596	0.167975	0.968950	-0.181437	0.059629	0.173728	0.982987						
04545														-0.820997	-8.779868	1.754680	0.983216	-0.180632	-0.025640	0.172881	0.967339	-0.185384	0.058289	0.177840	0.982332						
04546														-0.619937	-9.355507	1.748591	0.982893	-0.182754	-0.022845	0.175280	0.966278	-0.188635	0.056549	0.181404	0.981782						
04547														-0.496559	-9.590541	1.919936	0.982981	-0.182596	-0.020186	0.175543	0.965998	-0.189821	0.054160	0.183047	0.981611						
04548														-0.578803	-9.530119	1.996197	0.983459	-0.180239	-0.017962	0.173677	0.966491	-0.189030	0.051430	0.182783	0.981807						
04549														-0.760749	-9.375251	2.060733	0.984406	-0.175192	-0.015917	0.169217	0.967773	-0.186497	0.048077	0.180896	0.982327						
04550														-0.772642	-9.217433	2.230383	0.985816	-0.167223	-0.014257	0.161885	0.969873	-0.182045	0.044269	0.177155	0.983187						
04551														-0.808390	-9.010667	2.305749	0.987601	-0.156423	-0.013238	0.151696	0.972644	-0.175930	0.040396	0.171740	0.984314						
04552														-1.014033	-9.091558	2.353542	0.989636	-0.143019	-0.012865	0.138794	0.975668	-0.169730	0.036827	0.166185	0.985407						
04553														-1.115695	-9.388748	2.298442	0.991640	-0.128409	-0.012715	0.124587	0.978438	-0.164734	0.033594	0.161773	0.986256						
04554														-1.278448	-9.962378	2.071873	0.993522	-0.112955	-0.012424	0.109484	0.980769	-0.161574	0.030436	0.159167	0.986782						
04555														-1.390175	-10.092965	1.841908	0.995265	-0.096460	-0.011989	0.093339	0.982835	-0.159131	0.027133	0.157259	0.987185						
04556														-1.932826	-10.409114	1.605751	0.996947	-0.077259	-0.011327	0.074540	0.984827	-0.156713	0.023263	0.155390	0.987579						
04557														-2.491192	-10.206933	1.599759	0.998387	-0.055663	-0.011150	0.053303	0.986754	-0.153216	0.019531	0.152375	0.988130						
04558														-2.638293	-9.674544	1.602198	0.999352	-0.033747	-0.012550	0.031489	0.988208	-0.149843	0.017459	0.149351	0.988630						
04559														-2.286488	-9.736363	2.102034	0.999829	-0.011306	-0.014626	0.009015	0.988921	-0.148166	0.016139	0.148008	0.988854						
04560														-1.635209	-10.356044	2.256561	0.999810	0.011456	-0.015778	-0.013685	0.988687	-0.149367	0.013889	0.149555	0.988656						
04561														-1.457736	-11.010926	2.320973	0.999389	0.031306	-0.015517	-0.033301	0.987853	-0.151781	0.010577	0.152205	0.988292						
04562														-1.584153	-10.841114	2.180296	0.998783	0.047196	-0.014308	-0.048832	0.987016	-0.153017	0.006900	0.153530	0.988120						
04563														-1.972847	-10.364828	2.299047	0.998106	0.060129	-0.012969	-0.061408	0.986287	-0.153187	0.003580	0.153693	0.988112						
04564														-2.291500	-9.474099	2.329977	0.997378	0.071331	-0.012191	-0.072358	0.985505	-0.153444	0.001069	0.153924	0.988082						
04565														-2.245678	-9.044313	2.354480	0.996571	0.081739	-0.012838	-0.082741	0.984508	-0.154589	0.000003	0.155121	0.987895						
04566														-2.024756	-8.741626	2.294263	0.995690	0.091642	-0.014259	-0.092744	0.983249	-0.156909	-0.000360	0.157555	0.987510						
04567														-1.845447	-8.529805	2.131674	0.994764	0.101003	-0.015603	-0.102199	0.981945	-0.159185	-0.000757	0.159946	0.987125						
04568														-1.757321	-8.567994	1.937417	0.993883	0.109271	-0.016013	-0.110421	0.980684	-0.161452	-0.001938	0.162232	0.986751						
04569														-1.762117	-8.643941	1.988266	0.993269	0.114795	-0.015460	-0.115774	0.979706	-0.163622	-0.003637	0.164311	0.986402						
04570														-1.800875	-8.774359	2.063189	0.992881	0.118193	-0.014728	-0.118995	0.978982	-0.165631	-0.005158	0.166204	0.986078						
04571														-1.914636	-8.836553	1.972666	0.992745	0.119317	-0.014833	-0.120107	0.978415	-0.168163	-0.005552	0.168724	0.985648						
04572														-1.933520	-9.087417	1.864660	0.992912	0.117742	-0.016210	-0.118777	0.978157	-0.170591	-0.004230	0.171307	0.985209						
04573														-1.887020	-9.198150	1.868005	0.993288	0.114255	-0.018024	-0.115651	0.978369	-0.171518	-0.001963	0.172451	0.985016						
04574														-1.916164	-9.128305	1.753385	0.993788	0.109551	-0.019590	-0.111288	0.979116	-0.170137	0.000542	0.171261	0.985226						
04575														-1.865751	-8.856539	1.974512	0.994540	0.102230	-0.020937	-0.104292	0.980529	-0.166393	0.003519	0.167668	0.985837						
04576														-1.720848	-8.733848	2.079411	0.995543	0.091776	-0.021693	-0.094083	0.982353	-0.161650	0.006474	0.162971	0.986610						
04577														-1.795624	-8.957751	2.075397	0.996662	0.078711	-0.021652	-0.081133	0.984420	-0.155997	0.009036	0.157233	0.987520						
04578														-1.790661	-9.684238	2.489212	0.997766	0.063385	-0.021113	-0.065849	0.986396	-0.150623	0.011279	0.151676	0.988366						
04579														-1.505346	-10.544715	2.665494	0.998733	0.045900	-0.020611	-0.048437	0.987958	-0.146942	0.013618	0.147754	0.988930						
04580														-1.451894	-10.094232	2.320018	0.999414	0.026991	-0.021036	-0.029768	0.988928	-0.145381	0.016879	0.145922	0.989152						
04581														-1.068399	-10.279874	1.975477	0.999721	0.006424	-0.022715	-0.009705	0.989027	-0.147419	0.021519	0.147598	0.988813						
04582														-0.648896	-10.708899	1.836109	0.999578	-0.015679	-0.024454	0.011835	0.988604	-0.150076	0.026528	0.149723	0.988372						
04583														-0.458981	-10.770394	1.829107	0.998907	-0.039226	-0.025422	0.034953	0.987927	-0.150929	0.031035	0.149875	0.988218						
04584														-0.659483	-10.633844	1.952427	0.997745	-0.062421	-0.024655	0.058048	0.987015	-0.149770	0.033683	0.148001	0.988413						
04585														-1.323414	-10.542716	2.465050	0.996357	-0.081827	-0.024008	0.077419	0.986005	-0.147651	0.035754	0.145254	0.988748						
04586														-1.845259	-10.332361	2.893577	0.995031	-0.096480	-0.024580	0.091893	0.984977	-0.146207	0.038317	0.143221	0.988949						
04587														-1.975742	-10.034895	2.517424	0.994010	-0.106233	-0.025683	0.101426	0.984172	-0.145323	0.040714	0.141848	0.989051						
04588														-1.179945	-9.304987	2.514322	0.993285	-0.112662	-0.026290	0.107762	0.983688	-0.144030	0.042088	0.140230	0.989224						
04589														-0.424889	-8.805050	2.477440	0.992680	-0.117870	-0.026340	0.112915	0.983121	-0.143955	0.042863	0.139927	0.989234						
04590														-0.149654	-8.281781	2.295774	0.992134	-0.122633	-0.025126	0.117729	0.982306	-0.145650	0.042543	0.141546	0.989017						
04591														0.008075	-8.011987	2.385936	0.991640	-0.127040	-0.022591	0.122278	0.981118	-0.149849	0.041201	0.145834	0.988451						
04592														-0.019270	-8.203663	2.473119	0.990792	-0.133981	-0.019513	0.129375	0.979354	-0.155330	0.039921	0.151375	0.987670						
04593														-0.113203	-8.660262	2.461801	0.989440	-0.144066	-0.015910	0.139709	0.977183	-0.159983	0.038595	0.156071	0.986992						
04594														-0.339249	-8.851965	2.396864	0.987777	-0.155356	-0.012666	0.151276	0.975074	-0.162313	0.037567	0.158413	0.986658						
04595														-0.356700	-8.802990	2.387469	0.986093	-0.165865	-0.010495	0.161959	0.973204	-0.163230	0.037288	0.159260	0.986532						
04596														-0.542956	-8.789116	2.551503	0.984575	-0.174741	-0.008766	0.170952	0.971470	-0.164384	0.037240	0.160350	0.986357						
04597														-0.783180	-9.091905	2.458787	0.983522	-0.180638	-0.007423	0.176903	0.970030	-0.166572	0.037290	0.162514	0.986001						
04598														-0.800855	-9.436104	2.111114	0.983263	-0.182082	-0.006263	0.178402	0.969224	-0.169639	0.036959	0.165682	0.985486						
04599														-0.579421	-9.844792	2.089338	0.983784	-0.179304	-0.004390	0.175862	0.969130	-0.172799	0.035238	0.169224	0.984947						
04600														-0.457615	-10.437934	1.912564	0.985146	-0.171718	-0.001028	0.168947	0.970284	-0.173221	0.030742	0.170474	0.984882						
04601														-0.515907	-10.535849	2.113057	0.987190	-0.159520	0.003101	0.157757	0.973009	-0.168421	0.023849	0.166753	0.985710						
04602														-0.838486	-10.233388	2.779818	0.989615	-0.143601	0.006384	0.142773	0.976816	-0.159520	0.016671	0.158775	0.987174						
04603														-1.645896	-10.108677	2.840041	0.991837	-0.127307	0.007289	0.126937	0.980279	-0.151461	0.012136	0.151150	0.988436						
04604														-2.054089	-9.402204	2.067040	0.993836	-0.110703	0.005832	0.110357	0.983000	-0.146738	0.010512	0.146477	0.989158						
04605														-1.908808	-8.926843	1.523766	0.995814	-0.091308	0.004066	0.090912	0.984958	-0.146944	0.009412	0.146698	0.989136						
04606														-2.419973	-9.151683	1.438991	0.997606	-0.069078	0.003289	0.068785	0.986205	-0.150557	0.007157	0.150423	0.988596						
04607														-2.809150	-9.751286	1.519409	0.998948	-0.045796	0.002320	0.045606	0.986982	-0.154226	0.004773	0.154170	0.988033						
04608														-2.654341	-10.091918	1.822690	0.999739	-0.022832	0.001175	0.022736	0.987548	-0.155664	0.002394	0.155650	0.987809						
04609														-1.677397	-10.442653	2.177888	0.999998	-0.001843	0.001027	0.001982	0.987601	-0.156970	-0.000725	0.156971	0.987603						
04610														-1.057747	-10.947180	2.181353	0.999860	0.016637	0.001956	-0.016108	0.986941	-0.160276	-0.004597	0.160222	0.987070						
04611														-1.359028	-11.021871	1.873987	0.999460	0.032736	0.002921	-0.031816	0.985979	-0.163806	-0.008242	0.163625	0.986488						
04612														-1.980096	-10.098565	2.058597	0.998943	0.045788	0.003920	-0.044493	0.984968	-0.166907	-0.011503	0.166556	0.985965						
04613														-2.150451	-9.482228	2.138014	0.998334	0.057477	0.005073	-0.055773	0.983789	-0.170438	-0.014787	0.169871	0.985355						
04614														-2.168825	-9.287263	2.043806	0.997544	0.069759	0.006307	-0.067611	0.982513	-0.173487	-0.018299	0.172634	0.984816						
04615														-2.102624	-9.002597	1.895125	0.996580	0.082315	0.007268	-0.079768	0.981234	-0.175548	-0.021581	0.174368	0.984444						
04616														-1.942713	-8.731659	1.963242	0.995504	0.094437	0.007337	-0.091645	0.979858	-0.177427	-0.023945	0.175957	0.984107						
04617														-1.733279	-8.563641	1.882639	0.994338	0.106055	0.006622	-0.103152	0.978336	-0.179497	-0.025515	0.177798	0.983736						
04618														-1.685854	-8.551378	1.761530	0.993218	0.116150	0.005253	-0.113278	0.976866	-0.181385	-0.026199	0.179560	0.983398						
04619														-1.669775	-8.597728	1.647359	0.992233	0.124338	0.003672	-0.121576	0.975596	-0.182844	-0.026317	0.180978	0.983135						
04620														-1.666277	-8.701507	1.628121	0.991460	0.130395	0.002154	-0.127799	0.974748	-0.183120	-0.025977	0.181281	0.983088						
04621														-1.629174	-8.693333	1.624123	0.991043	0.133543	0.000344	-0.131276	0.974684	-0.180992	-0.024506	0.179326	0.983484						
04622														-1.463575	-8.615007	1.822040	0.990967	0.134092	-0.002183	-0.132366	0.975335	-0.176635	-0.021556	0.175329	0.984274						
04623														-1.392994	-8.884727	1.866647	0.991228	0.132035	-0.005741	-0.131060	0.976461	-0.171310	-0.017013	0.170560	0.985200						
04624														-1.414713	-9.361926	2.123718	0.991901	0.126650	-0.009636	-0.126495	0.978109	-0.165233	-0.011501	0.165113	0.986208						
04625														-1.609108	-9.869447	2.191916	0.992937	0.117962	-0.012661	-0.118472	0.980199	-0.158666	-0.006306	0.159045	0.987251						
04626														-1.703222	-10.788075	2.194891	0.994174	0.106737	-0.015001	-0.107775	0.982486	-0.152008	-0.001487	0.152739	0.988265						
04627														-1.393584	-10.725523	2.005381	0.995501	0.093282	-0.016616	-0.094709	0.984831	-0.145389	0.002802	0.146309	0.989235						
04628														-1.103013	-10.148488	1.708951	0.996817	0.077801	-0.017382	-0.079471	0.987007	-0.139646	0.006291	0.140583	0.990049						
04629														-0.681187	-10.043505	1.671958	0.998063	0.059816	-0.017124	-0.061585	0.988928	-0.135014	0.008858	0.135807	0.990696						
04630														-0.385295	-10.285297	1.769462	0.999090	0.039541	-0.016011	-0.041312	0.990400	-0.131915	0.010641	0.132456	0.991132						
04631														-0.550660	-10.260274	1.622945	0.999712	0.018938	-0.014759	-0.020693	0.991348	-0.129620	0.012177	0.129888	0.991454						
04632														-0.979431	-10.318018	2.069929	0.999889	-0.002139	-0.014713	0.000244	0.991825	-0.127605	0.014866	0.127587	0.991716						
04633														-0.847075	-10.366689	2.483767	0.999584	-0.023797	-0.016322	0.021547	0.991751	-0.126353	0.019194	0.125948	0.991851						
04634														-0.914759	-10.487212	2.542627	0.998895	-0.043145	-0.018634	0.040484	0.991321	-0.125078	0.023869	0.124185	0.991972						
04635														-1.203817	-10.356709	2.886098	0.998020	-0.059417	-0.020617	0.056425	0.990708	-0.123749	0.027778	0.122341	0.992099						
04636														-1.153744	-10.166743	2.646027	0.997015	-0.073908	-0.022321	0.070639	0.989939	-0.122602	0.031158	0.120660	0.992205						
04637														-0.968339	-9.755181	2.544522	0.996002	-0.085991	-0.024183	0.082451	0.989164	-0.121474	0.034366	0.118994	0.992300						
04638														-0.755419	-9.023582	2.666986	0.995023	-0.096267	-0.025727	0.092476	0.988284	-0.121418	0.037114	0.118434	0.992268						
04639														-0.657183	-8.735336	2.733994	0.994005	-0.105991	-0.026851	0.101987	0.987304	-0.121774	0.039417	0.118305	0.992195						
04640														-0.514662	-8.468270	2.717196	0.992906	-0.115664	-0.027554	0.111485	0.986196	-0.122424	0.041334	0.118484	0.992095						
04641														-0.410679	-8.195299	2.592939	0.991720	-0.125482	-0.027309	0.121224	0.984924	-0.123408	0.042383	0.119076	0.991980						
04642														-0.454264	-8.045557	2.371010	0.990489	-0.135067	-0.026254	0.130805	0.983511	-0.124881	0.042689	0.120259	0.991824						
04643														-0.548197	-8.179003	2.384145	0.989291	-0.143824	-0.024854	0.139600	0.982093	-0.126510	0.042604	0.121685	0.991654						
04644														-0.492383	-8.221645	2.418908	0.988140	-0.151733	-0.023604	0.147523	0.980693	-0.128367	0.042626	0.123363	0.991446						
04645														-0.562299	-8.611947	2.229256	0.987222	-0.157803	-0.022138	0.153656	0.979527	-0.130065	0.042209	0.125002	0.991258						
04646														-0.872940	-8.870272	2.370075	0.986781	-0.160793	-0.020234	0.156860	0.979015	-0.130093	0.040727	0.125200	0.991295						
04647														-0.906644	-9.096394	2.469323	0.986812	-0.160854	-0.018108	0.157254	0.979179	-0.128376	0.038381	0.123835	0.991560						
04648														-0.834095	-10.050600	2.593194	0.987512	-0.156623	-0.017033	0.153346	0.980345	-0.124129	0.036139	0.119967	0.992120						
04649														-0.936768	-10.055840	2.954461	0.988924	-0.147383	-0.017544	0.144363	0.982586	-0.116976	0.034479	0.113148	0.992980						
04650														-1.334764	-10.074961	3.380185	0.990746	-0.134517	-0.018081	0.131789	0.985285	-0.108837	0.032456	0.105447	0.993895						
04651														-1.610619	-10.464824	3.708773	0.992617	-0.119933	-0.018076	0.117482	0.987776	-0.102455	0.030143	0.099575	0.994573						
04652														-1.454687	-10.028684	3.391832	0.994247	-0.105431	-0.018924	0.103093	0.989817	-0.098151	0.029079	0.095635	0.994992						
04653														-1.692726	-9.182044	2.594744	0.995839	-0.088822	-0.020384	0.086420	0.991418	-0.098091	0.028922	0.095921	0.994969						
04654														-2.400960	-8.811778	1.892258	0.997353	-0.069413	-0.021672	0.066883	0.992614	-0.101217	0.028538	0.099499	0.994628						
04655														-2.757831	-8.927123	1.739950	0.998588	-0.047952	-0.022861	0.045263	0.993297	-0.106361	0.027808	0.105176	0.994065						
04656														-2.661402	-9.413553	1.826895	0.999409	-0.024364	-0.024247	0.021498	0.993456	-0.112171	0.026821	0.111584	0.993393						
04657														-2.152971	-9.881680	1.795010	0.999680	-0.000438	-0.025294	-0.002557	0.992979	-0.118264	0.025168	0.118290	0.992660						
04658														-1.830993	-10.797030	2.126046	0.999458	0.021449	-0.024971	-0.024397	0.991924	-0.124464	0.022099	0.125006	0.991910						
04659														-1.539362	-10.813531	2.403675	0.998970	0.038571	-0.023889	-0.041336	0.990807	-0.128811	0.018701	0.129666	0.991381						
04660														-1.610854	-10.539851	2.657452	0.998429	0.051290	-0.022554	-0.053821	0.989849	-0.131541	0.015579	0.132548	0.991054						
04661														-1.604919	-10.012751	2.774391	0.997970	0.060349	-0.020365	-0.062538	0.989051	-0.133671	0.012075	0.134673	0.990817						
04662														-1.795162	-9.554578	2.740640	0.997648	0.066519	-0.016569	-0.068157	0.988393	-0.135774	0.007345	0.136584	0.990601						
04663														-2.092810	-9.233263	2.659780	0.997390	0.071058	-0.012834	-0.072152	0.987738	-0.138450	0.002838	0.139015	0.990286						
04664														-2.365105	-8.835209	2.501591	0.997105	0.075244	-0.010947	-0.076036	0.987015	-0.141494	0.000158	0.141917	0.989879						
04665														-2.201209	-8.341936	2.429456	0.996767	0.079568	-0.011152	-0.080344	0.986198	-0.144770	-0.000521	0.145198	0.989402						
04666														-1.891003	-7.728639	2.320294	0.996433	0.083471	-0.012417	-0.084390	0.985274	-0.148709	-0.000179	0.149226	0.988803						
04667														-1.760489	-7.818311	2.126152	0.996107	0.087048	-0.013940	-0.088157	0.984193	-0.153597	0.000349	0.154228	0.988035						
04668														-1.929519	-8.198566	1.906412	0.995749	0.090818	-0.015386	-0.092109	0.983055	-0.158487	0.000731	0.159231	0.987241						
04669														-2.145072	-8.557774	1.880321	0.995422	0.094027	-0.017173	-0.095568	0.982162	-0.161940	0.001640	0.162840	0.986651						
04670														-2.042976	-8.584539	1.836578	0.995158	0.096361	-0.019373	-0.098234	0.981727	-0.162976	0.003314	0.164090	0.986440						
04671														-1.897145	-8.484628	1.698577	0.995025	0.097188	-0.021882	-0.099456	0.981749	-0.162103	0.005729	0.163473	0.986531						
04672														-1.844991	-9.143592	2.027247	0.995126	0.095476	-0.024661	-0.098202	0.982233	-0.159918	0.008954	0.161561	0.986822						
04673														-1.905551	-9.570908	2.172645	0.995470	0.091147	-0.027060	-0.094257	0.983390	-0.155113	0.012472	0.156960	0.987526						
04674														-1.895431	-10.086154	2.455917	0.996058	0.084013	-0.028449	-0.087323	0.985077	-0.148320	0.015564	0.150220	0.988530						
04675														-1.722521	-11.127842	2.608501	0.996780	0.074905	-0.028621	-0.078218	0.986871	-0.141309	0.017661	0.143093	0.989552						
04676														-1.407619	-10.752555	2.063303	0.997514	0.064539	-0.028292	-0.067779	0.988581	-0.134585	0.019283	0.136168	0.990498						
04677														-0.572364	-10.034184	1.551863	0.998249	0.052173	-0.027885	-0.055377	0.989937	-0.130223	0.020810	0.131539	0.991092						
04678														0.060492	-10.381083	1.640837	0.998972	0.037163	-0.025965	-0.040206	0.990870	-0.128689	0.020946	0.129601	0.991345						
04679														-0.261418	-10.894157	2.049593	0.999531	0.020669	-0.022582	-0.023378	0.991607	-0.127158	0.019764	0.127626	0.991625						
04680														-0.943964	-10.589499	2.335460	0.999790	0.002661	-0.020302	-0.005162	0.992253	-0.124128	0.019815	0.124207	0.992058						
04681														-1.146138	-10.482541	2.550190	0.999659	-0.015106	-0.021298	0.012399	0.992458	-0.121956	0.022979	0.121650	0.992307						
04682														-1.104824	-10.355442	2.795455	0.999279	-0.028894	-0.024612	0.025691	0.992230	-0.121734	0.027938	0.121014	0.992258						
04683														-1.427100	-10.675006	3.211621	0.998798	-0.039550	-0.028953	0.035721	0.991820	-0.122546	0.033563	0.121365	0.992040						
04684														-1.047663	-10.140063	3.071928	0.998236	-0.049853	-0.032228	0.045481	0.991178	-0.124490	0.038150	0.122805	0.991697						
04685														-0.683539	-9.652975	2.658831	0.997647	-0.059692	-0.033729	0.054979	0.990426	-0.126621	0.040964	0.124468	0.991378						
04686														-0.566037	-8.819864	2.671657	0.997095	-0.068022	-0.034279	0.063040	0.989521	-0.129898	0.042756	0.127360	0.990935						
04687														-0.716799	-8.140897	2.611873	0.996585	-0.074824	-0.034913	0.069469	0.988370	-0.135270	0.044629	0.132383	0.990193						
04688														-0.750505	-7.663581	2.210562	0.996103	-0.080663	-0.035666	0.074846	0.987039	-0.141957	0.046654	0.138735	0.989230						
04689														-0.722193	-7.644446	1.999099	0.995588	-0.086498	-0.036358	0.080197	0.985611	-0.148791	0.048705	0.145219	0.988200						
04690														-0.315833	-7.780424	2.129314	0.995068	-0.092318	-0.036283	0.085674	0.984245	-0.154665	0.049989	0.150793	0.987301						
04691														-0.098473	-7.869526	2.326394	0.994522	-0.098344	-0.035421	0.091508	0.982915	-0.159700	0.050522	0.155583	0.986530						
04692														-0.226303	-8.082150	2.162872	0.993970	-0.104298	-0.033850	0.097357	0.981440	-0.165217	0.050453	0.160925	0.985676						
04693														-0.395111	-8.684420	2.137822	0.993465	-0.109655	-0.031675	0.102728	0.979977	-0.170564	0.049744	0.166195	0.984837						
04694														-0.817110	-9.434230	2.403152	0.993018	-0.114164	-0.029685	0.107295	0.978733	-0.174841	0.049014	0.170436	0.984149						
04695														-1.472432	-10.293592	2.472265	0.992874	-0.115856	-0.027904	0.109123	0.977999	-0.177794	0.047889	0.173482	0.983672						
04696														-1.622776	-11.071340	2.205856	0.993039	-0.114806	-0.026328	0.108358	0.978062	-0.177915	0.046176	0.173824	0.983694						
04697														-1.061798	-11.024427	2.299822	0.993593	-0.110408	-0.024154	0.104567	0.979141	-0.174206	0.042884	0.170565	0.984413						
04698														-1.388456	-11.035831	2.576084	0.994600	-0.101518	-0.021576	0.096497	0.981076	-0.167865	0.038209	0.164876	0.985574						
04699														-1.831499	-9.484025	2.286697	0.995632	-0.091282	-0.019626	0.086980	0.983207	-0.160431	0.033941	0.158024	0.986852						
04700														-2.310709	-8.269186	1.848628	0.996632	-0.079986	-0.018079	0.076230	0.984925	-0.155281	0.030226	0.153380	0.987705						
04701														-2.757663	-8.598532	1.489289	0.997650	-0.066271	-0.017391	0.062839	0.986195	-0.153199	0.027303	0.151746	0.988042						
04702														-2.859401	-9.870130	1.393433	0.998630	-0.049203	-0.017797	0.045926	0.987251	-0.152405	0.025069	0.151379	0.988158						
04703														-2.337619	-10.789220	1.293110	0.999361	-0.030357	-0.018858	0.027191	0.988308	-0.150027	0.023192	0.149418	0.988502						
04704														-1.665734	-10.898148	1.278981	0.999746	-0.011072	-0.019622	0.008065	0.989078	-0.147174	0.021037	0.146978	0.988916						
04705														-1.521176	-10.568007	1.528650	0.999808	0.007409	-0.018161	-0.009969	0.989347	-0.145234	0.016891	0.145387	0.989231						
04706														-1.771254	-10.557588	1.961036	0.999613	0.023578	-0.014783	-0.025472	0.989135	-0.144786	0.011209	0.145106	0.989353						
04707														-2.033500	-10.862489	2.291738	0.999208	0.038046	-0.011693	-0.039344	0.988592	-0.145392	0.006028	0.145736	0.989305						
04708														-2.081338	-10.875605	2.293392	0.998626	0.051368	-0.010321	-0.052324	0.987965	-0.145557	0.002720	0.145897	0.989296						
04709														-2.056701	-10.516021	2.328993	0.997930	0.063583	-0.009655	-0.064311	0.987422	-0.144435	0.000349	0.144757	0.989467						
04710														-2.134338	-10.048062	2.499350	0.997202	0.074199	-0.009048	-0.074728	0.986811	-0.143593	-0.001726	0.143867	0.989596						
04711														-2.171805	-9.368444	2.573702	0.996521	0.082886	-0.008695	-0.083275	0.986175	-0.143261	-0.003300	0.143487	0.989647						
04712														-2.177859	-8.732087	2.463592	0.995846	0.090610	-0.008990	-0.090959	0.985430	-0.143712	-0.004163	0.143933	0.989579						
04713														-1.963355	-7.972185	2.205621	0.995154	0.097824	-0.009981	-0.098237	0.984593	-0.144656	-0.004324	0.144935	0.989432						
04714														-1.615537	-7.480119	2.194541	0.994475	0.104352	-0.011418	-0.104898	0.983692	-0.146103	-0.004014	0.146494	0.989203						
04715														-1.416999	-7.175617	2.222892	0.993880	0.109703	-0.012926	-0.110403	0.982708	-0.148645	-0.003604	0.149162	0.988806						
04716														-1.487295	-7.423436	2.198113	0.993378	0.113954	-0.014650	-0.114852	0.981562	-0.152793	-0.003032	0.153463	0.988150						
04717														-1.766203	-8.137282	2.043846	0.992887	0.117904	-0.016577	-0.119040	0.980277	-0.157756	-0.002350	0.158607	0.987339						
04718														-1.950556	-8.863081	2.041096	0.992449	0.121132	-0.019278	-0.122654	0.979092	-0.162278	-0.000782	0.163417	0.986557						
04719														-2.162178	-9.438861	2.114223	0.992185	0.122751	-0.022379	-0.124763	0.978464	-0.164446	0.001712	0.165953	0.986132						
04720														-2.208314	-9.548764	2.028016	0.992138	0.122586	-0.025178	-0.125065	0.978411	-0.164533	0.004465	0.166388	0.986050						
04721														-1.931165	-9.691055	2.067518	0.992409	0.119800	-0.027777	-0.122744	0.978873	-0.163528	0.007600	0.165696	0.986148						
04722														-1.896870	-9.698296	2.220353	0.993006	0.114223	-0.029879	-0.117562	0.979943	-0.160906	0.010901	0.163293	0.986517						
04723														-1.890231	-9.474035	2.281233	0.993963	0.105130	-0.031392	-0.108759	0.981824	-0.155541	0.014470	0.158016	0.987331						
04724														-1.643086	-9.847970	2.902892	0.995158	0.092843	-0.032260	-0.096642	0.984103	-0.149004	0.017913	0.151400	0.988310						
04725														-1.390507	-9.598304	2.725430	0.996293	0.079969	-0.031711	-0.083709	0.986173	-0.143023	0.019835	0.145147	0.989211						
04726														-1.109200	-7.902866	2.019993	0.997314	0.066819	-0.030010	-0.070382	0.987660	-0.139909	0.020291	0.141645	0.989709						
04727														-0.365933	-7.648917	1.381011	0.998266	0.051803	-0.027947	-0.055294	0.988101	-0.143525	0.020180	0.144822	0.989252						
04728														0.169756	-8.704457	0.801899	0.999073	0.034619	-0.025592	-0.038135	0.987503	-0.152917	0.019978	0.153751	0.987908						
04729														-0.117098	-10.579255	0.609461	0.999633	0.014546	-0.022864	-0.018089	0.986414	-0.163280	0.020178	0.163634	0.986315						
04730														-0.669567	-12.276073	0.998522	0.999773	-0.008334	-0.019630	0.004912	0.985718	-0.168331	0.020752	0.168196	0.985535						
04731														-1.186279	-12.548781	1.503487	0.999403	-0.030096	-0.016961	0.026848	0.985611	-0.166881	0.021739	0.166326	0.985831						
04732														-1.280948	-11.649891	2.158609	0.998695	-0.048222	-0.016843	0.044821	0.985471	-0.163825	0.024498	0.162856	0.986346						
04733														-1.248282	-11.732017	2.433246	0.997922	-0.062064	-0.017288	0.058430	0.984894	-0.163004	0.027144	0.161655	0.986474						
04734														-1.264468	-11.850038	2.453011	0.997248	-0.072230	-0.016690	0.068560	0.984241	-0.163003	0.028201	0.161410	0.986484						
04735														-0.944086	-11.205286	2.560304	0.996571	-0.081157	-0.016140	0.077489	0.983742	-0.162008	0.029026	0.160202	0.986657						
04736														-0.332594	-10.403004	2.636202	0.995725	-0.090887	-0.016461	0.087073	0.983106	-0.160998	0.030816	0.158876	0.986817						
04737														0.071928	-9.632963	2.602360	0.994686	-0.101576	-0.016810	0.097629	0.982396	-0.159267	0.032692	0.156780	0.987092						
04738														0.098509	-8.737261	2.619387	0.993566	-0.112091	-0.016217	0.108151	0.981499	-0.157997	0.033627	0.155226	0.987306						
04739														-0.113831	-7.874805	2.497414	0.992356	-0.122503	-0.014889	0.118652	0.980331	-0.157713	0.033916	0.154741	0.987373						
04740														-0.337497	-7.594331	2.224619	0.991084	-0.132503	-0.014009	0.128610	0.978814	-0.159320	0.034822	0.156098	0.987128						
04741														-0.386864	-7.676898	1.891006	0.989851	-0.141427	-0.013906	0.137337	0.977168	-0.162115	0.036516	0.158560	0.986674						
04742														-0.275357	-7.747780	1.695344	0.988733	-0.149040	-0.013915	0.144742	0.975620	-0.164971	0.038163	0.161098	0.986200						
04743														-0.421817	-7.846402	1.544510	0.987739	-0.155525	-0.013529	0.151104	0.974228	-0.167475	0.039227	0.163378	0.985783						
04744														-0.484080	-8.053617	1.653845	0.987055	-0.159910	-0.012280	0.155612	0.973426	-0.168008	0.038820	0.163922	0.985709						
04745														-0.699628	-8.568411	2.057560	0.986556	-0.163049	-0.011058	0.159003	0.973299	-0.165550	0.037756	0.161566	0.986139						
04746														-1.180523	-9.258401	2.797239	0.986517	-0.163358	-0.009887	0.159705	0.974131	-0.159885	0.035749	0.156150	0.987086						
04747														-1.718112	-10.210661	3.093945	0.987217	-0.159158	-0.008493	0.156040	0.975986	-0.151995	0.032480	0.148726	0.988345						
04748														-2.103839	-11.774039	3.247354	0.988497	-0.150999	-0.008588	0.148170	0.978236	-0.145262	0.030336	0.142318	0.989356						
04749														-1.600932	-10.602485	2.800083	0.989758	-0.142262	-0.011850	0.139176	0.980087	-0.141635	0.031764	0.138535	0.989848						
04750														-1.918868	-9.328452	1.885429	0.991615	-0.128532	-0.013403	0.125344	0.981855	-0.142299	0.031450	0.139426	0.989733						
04751														-2.958355	-9.305288	1.292727	0.993929	-0.109265	-0.012899	0.106228	0.983547	-0.146118	0.028652	0.143861	0.989183						
04752														-3.359518	-10.166477	1.457822	0.996160	-0.086650	-0.012516	0.083830	0.985273	-0.149031	0.025245	0.147410	0.988753						
04753														-2.660017	-10.054263	1.713334	0.997933	-0.062881	-0.013234	0.060236	0.987135	-0.148110	0.022377	0.147007	0.988882						
04754														-1.633242	-10.266879	1.731359	0.999120	-0.039475	-0.014160	0.036986	0.988571	-0.146148	0.019768	0.145496	0.989161						
04755														-1.275814	-10.788472	2.183310	0.999773	-0.017166	-0.012613	0.015154	0.989294	-0.145151	0.014970	0.144927	0.989329						
04756														-1.559887	-10.867061	2.529927	0.999948	0.002307	-0.009940	-0.003730	0.989342	-0.145565	0.009498	0.145594	0.989299						
04757														-1.988992	-10.109773	2.417392	0.999774	0.019799	-0.007787	-0.020728	0.988942	-0.146848	0.004793	0.146976	0.989128						
04758														-2.226262	-9.695954	2.350499	0.999320	0.036289	-0.006485	-0.036851	0.988066	-0.149557	0.000980	0.149695	0.988732						
04759														-2.313454	-9.360011	2.242486	0.998604	0.052496	-0.005826	-0.052770	0.986914	-0.152366	-0.002249	0.152460	0.988307						
04760														-2.194768	-8.778683	2.251589	0.997625	0.068675	-0.005288	-0.068666	0.985607	-0.154481	-0.005397	0.154478	0.987982						
04761														-2.167457	-8.050913	2.204757	0.996373	0.084939	-0.005042	-0.084674	0.983952	-0.157065	-0.008380	0.156922	0.987575						
04762														-1.974973	-7.611382	2.083269	0.994932	0.100404	-0.005371	-0.099958	0.981911	-0.160809	-0.010872	0.160531	0.986971						
04763														-1.657484	-7.643023	2.059796	0.993350	0.114960	-0.006290	-0.114410	0.979544	-0.165541	-0.012869	0.165160	0.986183						
04764														-1.570059	-7.989911	1.964171	0.991769	0.127807	-0.007757	-0.127251	0.977102	-0.170525	-0.014215	0.170108	0.985323						
04765														-1.655186	-8.276329	1.738660	0.990279	0.138796	-0.009114	-0.138250	0.974937	-0.174315	-0.015309	0.173880	0.984648						
04766														-1.646325	-8.838004	1.844024	0.989031	0.147310	-0.010850	-0.146898	0.973263	-0.176581	-0.015452	0.176238	0.984226						
04767														-1.596823	-9.425338	1.990274	0.988286	0.152029	-0.013358	-0.151964	0.972223	-0.178012	-0.014076	0.177957	0.983938						
04768														-1.636697	-10.161971	1.899309	0.988149	0.152655	-0.016039	-0.153040	0.971782	-0.179494	-0.011814	0.179822	0.983628						
04769														-2.182939	-10.354830	1.704297	0.988670	0.148909	-0.018922	-0.149873	0.972229	-0.179745	-0.008369	0.180544	0.983531						
04770														-2.346789	-9.985886	1.798462	0.989771	0.140927	-0.022191	-0.142626	0.973889	-0.176629	-0.003280	0.177987	0.984027						
04771														-2.042868	-9.240696	2.082310	0.991165	0.130204	-0.025277	-0.132608	0.976608	-0.169269	0.002646	0.171125	0.985246						
04772														-1.454670	-8.363514	2.298914	0.992678	0.117687	-0.027192	-0.120520	0.980024	-0.158202	0.008030	0.160320	0.987032						
04773														-0.842089	-9.520732	3.324278	0.994166	0.103927	-0.028855	-0.107091	0.982978	-0.149281	0.012850	0.151501	0.988374						
04774														-1.325082	-11.056209	2.756540	0.995250	0.092463	-0.030462	-0.095866	0.985300	-0.141398	0.016940	0.143646	0.989484						
04775														-1.653037	-10.677343	1.999445	0.996201	0.080791	-0.032515	-0.084492	0.987097	-0.136018	0.021107	0.138249	0.990173						
04776														-0.764176	-10.671042	1.676522	0.997299	0.064468	-0.035184	-0.068635	0.988592	-0.134069	0.026140	0.136122	0.990347						
04777														0.155373	-10.958223	1.866993	0.998336	0.044816	-0.036284	-0.049317	0.989680	-0.134543	0.029880	0.136109	0.990243						
04778														-0.262116	-11.051939	1.757150	0.999104	0.024966	-0.034176	-0.029375	0.990374	-0.135263	0.030470	0.136146	0.990220						
04779														-1.089203	-10.495422	1.861837	0.999479	0.004967	-0.031895	-0.009246	0.990740	-0.135459	0.030926	0.135684	0.990269						
04780														-1.448625	-9.722960	2.096481	0.999350	-0.015119	-0.032733	0.010505	0.990546	-0.136779	0.034491	0.136346	0.990061						
04781														-1.077565	-9.315426	2.170856	0.998841	-0.032246	-0.035737	0.026941	0.989771	-0.140098	0.039889	0.138973	0.989492						
04782														-1.030755	-9.355471	2.404827	0.998203	-0.045682	-0.038768	0.039620	0.988661	-0.144843	0.044945	0.143047	0.988695						
04783														-1.110460	-9.368734	2.256691	0.997479	-0.058088	-0.040772	0.051374	0.987371	-0.149863	0.048962	0.147391	0.987866						
04784														-0.984838	-9.306518	2.127398	0.996676	-0.070208	-0.041331	0.063084	0.986083	-0.153818	0.051555	0.150699	0.987234						
04785														-0.817539	-8.911631	2.082893	0.995842	-0.081277	-0.041142	0.073878	0.984790	-0.157257	0.053298	0.153564	0.986700						
04786														-0.753923	-8.472846	2.216414	0.994960	-0.091752	-0.040442	0.084108	0.983274	-0.161550	0.054588	0.157335	0.986035						
04787														-0.689912	-8.594999	2.286173	0.993959	-0.102199	-0.040017	0.094164	0.981376	-0.167434	0.056383	0.162655	0.985071						
04788														-0.602854	-9.015524	2.335863	0.992855	-0.112531	-0.039701	0.104067	0.979344	-0.173366	0.058390	0.167996	0.984057						
04789														-0.540713	-9.216582	2.260068	0.991761	-0.121739	-0.039875	0.112764	0.977334	-0.179172	0.060784	0.173200	0.983009						
04790														-0.553534	-9.317163	2.006300	0.990662	-0.130252	-0.040295	0.120761	0.975450	-0.184158	0.063292	0.177572	0.982070						
04791														-0.631314	-9.023174	1.623580	0.989552	-0.138463	-0.040176	0.128589	0.973643	-0.188371	0.065199	0.181237	0.981276						
04792														-1.046102	-8.680808	1.514722	0.988772	-0.144458	-0.038244	0.134539	0.971949	-0.192909	0.065039	0.185598	0.980471						
04793														-1.478937	-8.676374	1.586565	0.988504	-0.147262	-0.034260	0.137812	0.970778	-0.196462	0.062190	0.189482	0.979913						
04794														-1.391733	-9.417882	1.786544	0.988772	-0.146761	-0.028117	0.138493	0.970695	-0.196397	0.056116	0.190298	0.980121						
04795														-0.916961	-10.255729	2.252002	0.989390	-0.143687	-0.021475	0.136958	0.971771	-0.192104	0.048471	0.187125	0.981140						
04796														-0.666241	-10.666530	2.620700	0.990158	-0.139028	-0.016102	0.133741	0.973800	-0.183920	0.041250	0.179956	0.982809						
04797														-0.812701	-10.919501	2.892668	0.990997	-0.133279	-0.012721	0.129097	0.976418	-0.173038	0.035483	0.169838	0.984833						
04798														-1.175624	-10.867544	3.200932	0.992107	-0.124911	-0.011035	0.121560	0.979615	-0.159933	0.030788	0.157329	0.987066						
04799														-1.581955	-10.456460	3.319170	0.993367	-0.114492	-0.010670	0.111710	0.982879	-0.146528	0.027263	0.144364	0.989149						
04800														-1.644671	-8.896716	2.764417	0.994503	-0.104122	-0.011102	0.101662	0.985493	-0.135900	0.025091	0.134024	0.990660						
04801														-1.882761	-8.256840	2.130915	0.995705	-0.092002	-0.010395	0.089861	0.987322	-0.130848	0.022301	0.129352	0.991348						
04802														-2.429553	-9.019461	1.568814	0.997027	-0.076601	-0.008349	0.074866	0.988640	-0.130327	0.018238	0.129315	0.991436						
04803														-2.656281	-9.726300	1.662262	0.998273	-0.058358	-0.006798	0.056975	0.989814	-0.130469	0.014343	0.129857	0.991429						
04804														-2.271212	-10.074247	1.901345	0.999252	-0.038115	-0.006530	0.036945	0.990832	-0.129947	0.011423	0.129608	0.991499						
04805														-1.580401	-9.499373	1.963554	0.999840	-0.016882	-0.005849	0.015983	0.991440	-0.129578	0.007986	0.129464	0.991552						
04806														-1.300449	-9.262564	2.164825	0.999985	0.004555	-0.003052	-0.004919	0.991164	-0.132552	0.002421	0.132565	0.991171						
04807														-1.741347	-9.819052	2.146951	0.999716	0.023828	0.000546	-0.023521	0.990023	-0.138927	-0.003851	0.138875	0.990302						
04808														-2.015776	-10.739958	2.445195	0.999151	0.041148	0.002099	-0.040402	0.988468	-0.145941	-0.008080	0.145732	0.989291						
04809														-2.153973	-10.661684	2.362910	0.998389	0.056724	0.001301	-0.055881	0.987011	-0.150623	-0.009828	0.150308	0.988590						
04810														-2.132219	-9.942576	2.277415	0.997536	0.070154	-0.000764	-0.069442	0.985741	-0.153271	-0.009999	0.152946	0.988184						
04811														-2.109924	-9.379331	2.190164	0.996580	0.082592	-0.002496	-0.081973	0.984404	-0.155656	-0.010399	0.155329	0.987808						
04812														-2.068252	-8.737584	2.091252	0.995593	0.093674	-0.004440	-0.093185	0.982847	-0.159150	-0.010544	0.158863	0.987244						
04813														-1.973444	-8.278525	2.185590	0.994570	0.103806	-0.007367	-0.103617	0.981216	-0.162722	-0.009663	0.162602	0.986644						
04814														-1.715549	-7.926871	1.903922	0.993548	0.112819	-0.011571	-0.113165	0.979502	-0.166639	-0.007466	0.166874	0.985950						
04815														-1.504838	-8.046809	1.637574	0.992663	0.119790	-0.016423	-0.120830	0.977829	-0.171027	-0.004428	0.171756	0.985130						
04816														-1.678820	-8.469252	1.500457	0.992010	0.124417	-0.020914	-0.126155	0.976326	-0.175704	-0.001442	0.176938	0.984221						
04817														-1.797659	-8.870454	1.500312	0.991646	0.126620	-0.024597	-0.128981	0.975321	-0.179201	0.001300	0.180876	0.983505						
04818														-1.943413	-9.040538	1.293028	0.991638	0.126115	-0.027358	-0.128987	0.975155	-0.180099	0.003965	0.182122	0.983268						
04819														-1.882487	-9.035864	1.371173	0.991947	0.123285	-0.029012	-0.126490	0.975932	-0.177645	0.006413	0.179884	0.983667						
04820														-2.026309	-9.128222	1.664997	0.992593	0.117640	-0.030328	-0.121130	0.977457	-0.172934	0.009300	0.175327	0.984466						
04821														-2.067248	-9.285817	1.948381	0.993541	0.108926	-0.031815	-0.112725	0.979604	-0.166341	0.013047	0.168853	0.985555						
04822														-2.154603	-9.852829	2.252933	0.994686	0.097299	-0.033666	-0.101428	0.982208	-0.158052	0.017689	0.160627	0.986857						
04823														-2.002433	-10.964850	2.654338	0.995857	0.083573	-0.035835	-0.088024	0.984862	-0.149329	0.022813	0.151865	0.988138						
04824														-1.596119	-10.633964	2.515048	0.996913	0.068842	-0.037755	-0.073503	0.987343	-0.140542	0.027602	0.142883	0.989355						
04825														-0.715548	-9.699543	2.309640	0.997829	0.052865	-0.039275	-0.057712	0.989196	-0.134762	0.031726	0.136736	0.990099						
04826														-0.030154	-10.066593	2.252637	0.998641	0.034688	-0.038906	-0.039611	0.990201	-0.133911	0.033879	0.135270	0.990229						
04827														-0.230820	-10.663502	2.153515	0.999236	0.014986	-0.036104	-0.019779	0.990472	-0.136287	0.033717	0.136897	0.990011						
04828														-0.788960	-10.917581	2.128935	0.999462	-0.006274	-0.032188	0.001746	0.990316	-0.138823	0.032747	0.138692	0.989794						
04829														-1.077995	-10.584436	2.012176	0.999188	-0.028280	-0.028708	0.023945	0.989653	-0.141469	0.032411	0.140667	0.989526						
04830														-1.301320	-10.353937	2.084684	0.998467	-0.048407	-0.026855	0.044016	0.988428	-0.145163	0.033571	0.143759	0.989043						
04831														-1.552881	-10.276875	2.451185	0.997504	-0.065487	-0.026399	0.060826	0.986858	-0.149705	0.035856	0.147726	0.988378						
04832														-1.551922	-9.911544	2.477323	0.996292	-0.081598	-0.027277	0.076485	0.985180	-0.153529	0.039401	0.150873	0.987768						
04833														-1.163301	-9.356070	2.202221	0.994980	-0.095800	-0.028942	0.090177	0.983656	-0.155849	0.043399	0.152457	0.987357						
04834														-0.859787	-8.542842	2.148984	0.993836	-0.106559	-0.030575	0.100458	0.982300	-0.158101	0.046881	0.154055	0.986950						
04835														-0.871261	-7.884798	2.246834	0.992803	-0.115417	-0.031953	0.108852	0.980922	-0.161066	0.049933	0.156429	0.986426						
04836														-1.033118	-7.842013	2.288130	0.991769	-0.123576	-0.033526	0.116379	0.979159	-0.166445	0.053395	0.161173	0.985481						
04837														-0.797755	-8.223465	1.915646	0.990880	-0.130311	-0.034288	0.122541	0.977289	-0.172890	0.056039	0.167111	0.984344						
04838														-0.533425	-8.900486	1.621132	0.990236	-0.135190	-0.033998	0.127029	0.975554	-0.179324	0.057410	0.173255	0.983202						
04839														-0.225255	-9.616452	1.528561	0.989804	-0.138555	-0.033023	0.130236	0.974245	-0.184080	0.057678	0.177902	0.982356						
04840														-0.091203	-9.855459	1.625501	0.989594	-0.140453	-0.031253	0.132272	0.973482	-0.186649	0.056639	0.180573	0.981929						
04841														-0.110255	-9.869353	1.678625	0.989476	-0.141698	-0.029314	0.133833	0.973220	-0.186902	0.055013	0.181012	0.981941						
04842														-0.160869	-9.631415	1.776504	0.989289	-0.143380	-0.027381	0.135946	0.973307	-0.184912	0.053163	0.179209	0.982374						
04843														-0.367349	-9.392911	1.893424	0.989047	-0.145372	-0.025541	0.138455	0.973739	-0.180728	0.051143	0.175212	0.983201						
04844														-0.666187	-9.097571	2.124723	0.988843	-0.147022	-0.023945	0.140670	0.974549	-0.174544	0.048998	0.169228	0.984358						
04845														-0.914297	-8.807204	2.470841	0.988930	-0.146608	-0.022876	0.140827	0.975922	-0.166566	0.046745	0.161501	0.985765						
04846														-1.223639	-8.937377	2.783034	0.989456	-0.143061	-0.022611	0.137780	0.977842	-0.157609	0.044658	0.152832	0.987243						
04847														-1.684331	-9.833088	2.972682	0.990507	-0.135660	-0.022200	0.130909	0.980164	-0.148797	0.041945	0.144478	0.988619						
04848														-1.972573	-11.052493	2.969308	0.991857	-0.125564	-0.021305	0.121384	0.982645	-0.140268	0.038548	0.136539	0.989884						
04849														-1.656920	-10.748436	2.740740	0.993247	-0.114095	-0.021028	0.110344	0.985017	-0.132534	0.035834	0.129318	0.990955						
04850														-1.785054	-10.027726	2.303887	0.994852	-0.099152	-0.020928	0.095675	0.987086	-0.128485	0.033397	0.125821	0.991491						
04851														-2.471086	-9.199991	2.000143	0.996561	-0.080221	-0.020778	0.076941	0.988847	-0.127520	0.030776	0.125482	0.991618						
04852														-2.920934	-9.361367	1.946959	0.998085	-0.058348	-0.020514	0.055238	0.990141	-0.128725	0.027823	0.127346	0.991468						
04853														-2.721602	-9.912381	1.889454	0.999196	-0.034507	-0.020413	0.031555	0.990940	-0.130545	0.024733	0.129796	0.991232						
04854														-2.085322	-9.922235	1.766391	0.999757	-0.010218	-0.019514	0.007554	0.991219	-0.132016	0.020692	0.131837	0.991055						
04855														-1.867938	-9.758483	1.804498	0.999767	0.013711	-0.016701	-0.015845	0.990691	-0.135205	0.014691	0.135438	0.990677						
04856														-2.248330	-10.146706	2.062700	0.999265	0.035877	-0.013471	-0.037413	0.989426	-0.140129	0.008301	0.140530	0.990042						
04857														-2.366605	-10.582088	2.106920	0.998386	0.055659	-0.011282	-0.056710	0.987706	-0.145673	0.003036	0.146077	0.989269						
04858														-2.111602	-10.344414	2.148867	0.997241	0.073496	-0.010383	-0.074223	0.986019	-0.149192	-0.000727	0.149551	0.988754						
04859														-1.875244	-9.712591	2.151728	0.995827	0.090749	-0.009610	-0.091157	0.984276	-0.151298	-0.004272	0.151543	0.988441						
04860														-1.857723	-9.075442	2.092513	0.994249	0.106744	-0.008618	-0.106797	0.982343	-0.153612	-0.007931	0.153649	0.988094						
04861														-1.934679	-8.708388	2.236884	0.992528	0.121743	-0.008145	-0.121508	0.980108	-0.156922	-0.011121	0.156739	0.987577						
04862														-1.852914	-8.478207	2.235426	0.990684	0.135918	-0.008438	-0.135494	0.977591	-0.161114	-0.013649	0.160756	0.986900						
04863														-1.910853	-8.371099	2.190517	0.988838	0.148624	-0.010514	-0.148313	0.975109	-0.164819	-0.014244	0.164539	0.986268						
04864														-1.672605	-8.256075	2.136346	0.987104	0.159464	-0.014030	-0.159527	0.972627	-0.168959	-0.013297	0.169018	0.985523						
04865														-1.648540	-8.250999	2.097192	0.985687	0.167650	-0.017764	-0.168179	0.970486	-0.172837	-0.011737	0.173351	0.984790						
04866														-1.641137	-8.438989	2.009970	0.984688	0.173033	-0.021192	-0.174041	0.968852	-0.176170	-0.009951	0.177161	0.984132						
04867														-1.674530	-8.407639	1.830458	0.984066	0.176271	-0.023290	-0.177581	0.967821	-0.178292	-0.008887	0.179587	0.983702						
04868														-1.795627	-8.724800	1.868039	0.983904	0.177105	-0.023793	-0.178479	0.967399	-0.179676	-0.008804	0.181030	0.983438						
04869														-2.044820	-9.567988	1.870615	0.984454	0.174022	-0.023795	-0.175436	0.967698	-0.181062	-0.008483	0.182422	0.983184						
04870														-2.472142	-10.423009	1.668688	0.985497	0.167984	-0.024033	-0.169548	0.968858	-0.180465	-0.007030	0.181922	0.983288						
04871														-2.794747	-10.547178	1.670582	0.986972	0.159015	-0.024526	-0.160841	0.971179	-0.175902	-0.004152	0.177555	0.984102						
04872														-2.499165	-10.042353	1.954745	0.988930	0.146310	-0.024724	-0.148384	0.974685	-0.167244	-0.000372	0.169061	0.985605						
04873														-1.867356	-9.902692	2.253476	0.991161	0.130408	-0.024347	-0.132615	0.978810	-0.156028	0.003484	0.157877	0.987453						
04874														-1.174472	-10.939847	2.594593	0.993177	0.114165	-0.023773	-0.116429	0.982247	-0.147088	0.006559	0.148853	0.988838						
04875														-1.153398	-11.337066	2.347384	0.994793	0.099452	-0.022278	-0.101603	0.984883	-0.140292	0.007988	0.141825	0.989859						
04876														-1.291300	-11.098990	1.920601	0.996335	0.082986	-0.020741	-0.085038	0.987133	-0.135411	0.009237	0.136679	0.990572						
04877														-0.484308	-10.109414	1.653659	0.997792	0.063709	-0.018792	-0.065634	0.989136	-0.131541	0.010208	0.132484	0.991133						
04878														-0.031364	-9.146746	1.542477	0.998942	0.042833	-0.016716	-0.044635	0.990647	-0.128940	0.011037	0.129550	0.991511						
04879														-0.260973	-9.039678	1.732579	0.999662	0.021285	-0.014949	-0.023019	0.991573	-0.127491	0.012110	0.127792	0.991727						
04880														-0.876605	-9.224943	2.064682	0.999887	-0.001024	-0.015010	-0.000892	0.991896	-0.127047	0.015018	0.127046	0.991783						
04881														-1.541170	-9.858950	2.259032	0.999587	-0.022899	-0.017366	0.020516	0.991717	-0.126796	0.020125	0.126387	0.991777						
04882														-1.486892	-10.361740	2.443258	0.998876	-0.042336	-0.021300	0.039356	0.991393	-0.124866	0.026403	0.123887	0.991945						
04883														-1.066540	-9.509550	2.585978	0.997940	-0.058822	-0.025608	0.055308	0.991087	-0.121196	0.032509	0.119530	0.992298						
04884														-0.930448	-8.380992	2.838819	0.996887	-0.073405	-0.028775	0.069521	0.990534	-0.118359	0.037191	0.115990	0.992554						
04885														-0.794240	-8.063126	2.841152	0.995764	-0.086941	-0.029914	0.082849	0.989538	-0.118111	0.039870	0.115133	0.992550						
04886														-0.688896	-8.172994	2.743528	0.994614	-0.099266	-0.029822	0.095031	0.988218	-0.119979	0.041381	0.116499	0.992328						
04887														-0.672715	-8.563590	2.727916	0.993480	-0.110167	-0.029340	0.105787	0.986749	-0.123030	0.042505	0.119124	0.991969						
04888														-0.669196	-9.014807	2.636989	0.992302	-0.120419	-0.028903	0.115891	0.985236	-0.126015	0.043651	0.121695	0.991607						
04889														-0.641964	-9.409665	2.701476	0.991129	-0.129826	-0.028436	0.125192	0.983821	-0.128149	0.044613	0.123452	0.991347						
04890														-0.553213	-9.501593	2.725058	0.989992	-0.138324	-0.027951	0.133633	0.982553	-0.129350	0.045355	0.124321	0.991205						
04891														-0.576011	-9.365987	2.715582	0.988938	-0.145767	-0.027436	0.141070	0.981475	-0.129640	0.045825	0.124336	0.991181						
04892														-0.615419	-9.180313	2.651440	0.988081	-0.151580	-0.026829	0.146921	0.980635	-0.129497	0.045938	0.124012	0.991217						
04893														-0.706766	-8.983722	2.750253	0.987363	-0.156271	-0.026355	0.151637	0.979919	-0.129477	0.046059	0.123844	0.991232						
04894														-0.763668	-9.012399	2.858817	0.986697	-0.160424	-0.026330	0.155717	0.979151	-0.130441	0.046707	0.124606	0.991106						
04895														-0.630832	-9.074448	2.821018	0.986119	-0.163883	-0.026682	0.159013	0.978365	-0.132348	0.047794	0.126268	0.990844						
04896														-0.536661	-9.205830	2.731553	0.985595	-0.166929	-0.027137	0.161786	0.977378	-0.136222	0.049263	0.129870	0.990307						
04897														-0.575739	-9.849082	2.664246	0.985178	-0.169415	-0.026874	0.164051	0.976339	-0.140889	0.050107	0.134392	0.989661						
04898														-0.899930	-10.100077	2.771418	0.985016	-0.170505	-0.025905	0.165156	0.975842	-0.143024	0.049666	0.136603	0.989380						
04899														-1.362285	-9.861318	2.924077	0.985305	-0.168850	-0.025748	0.163606	0.976305	-0.141637	0.049053	0.135343	0.989584						
04900														-1.499001	-9.583135	3.169167	0.986237	-0.163156	-0.026769	0.158038	0.977833	-0.137354	0.048586	0.131233	0.990160						
04901														-1.133699	-9.245192	3.333167	0.987728	-0.153586	-0.028379	0.148656	0.980195	-0.130843	0.047913	0.125018	0.990997						
04902														-0.724121	-8.982569	3.465942	0.989554	-0.141118	-0.029479	0.136545	0.983048	-0.122361	0.046247	0.117058	0.992048						
04903														-0.570304	-8.709802	3.411272	0.991526	-0.126496	-0.029573	0.122433	0.986046	-0.112795	0.043428	0.108219	0.993178						
04904														-0.905029	-9.303499	3.781033	0.993353	-0.111248	-0.029555	0.107616	0.988684	-0.104508	0.040847	0.100633	0.994085						
04905														-1.212894	-10.186131	3.655687	0.994736	-0.098141	-0.029471	0.094790	0.990546	-0.099166	0.038924	0.095850	0.994634						
04906														-0.944322	-9.789248	2.593018	0.995725	-0.087738	-0.028884	0.084528	0.991583	-0.098077	0.037246	0.095216	0.994760						
04907														-1.311139	-8.561544	1.718973	0.996631	-0.077665	-0.026367	0.074539	0.991789	-0.103916	0.034222	0.101600	0.994237						
04908														-2.758472	-8.507108	1.121674	0.997671	-0.064636	-0.021798	0.061710	0.991404	-0.115370	0.029068	0.113757	0.993083						
04909														-4.271177	-9.984653	1.094385	0.998733	-0.046814	-0.018444	0.044079	0.990796	-0.127986	0.024266	0.127011	0.991604						
04910														-4.315486	-11.562240	0.912439	0.999541	-0.022826	-0.019901	0.019875	0.990293	-0.137567	0.022848	0.137109	0.990292						
04911														-2.987792	-12.616406	1.157436	0.999711	0.004071	-0.023714	-0.007418	0.989722	-0.142815	0.022889	0.142949	0.989465						
04912														-1.546855	-11.961311	1.473661	0.999220	0.029149	-0.026623	-0.032701	0.988955	-0.144564	0.022115	0.145322	0.989137						
04913														-1.286418	-10.720899	1.417461	0.998423	0.049369	-0.026719	-0.052731	0.988051	-0.144824	0.019250	0.146005	0.989097						
04914														-1.343878	-9.400014	1.515661	0.997540	0.065496	-0.024988	-0.068448	0.986986	-0.145514	0.015132	0.146866	0.989041						
04915														-1.582160	-8.269421	1.628574	0.996534	0.080052	-0.022602	-0.082516	0.985661	-0.147187	0.010495	0.148542	0.988850						
04916														-1.883122	-7.633625	1.632866	0.995373	0.093861	-0.020566	-0.095888	0.984077	-0.149661	0.006191	0.150941	0.988523						
04917														-2.081230	-7.675496	1.739159	0.994005	0.107657	-0.019104	-0.109315	0.982165	-0.152979	0.002294	0.154150	0.988045						
04918														-2.060205	-8.292838	1.845613	0.992361	0.121942	-0.018680	-0.123361	0.979817	-0.157292	-0.000877	0.158395	0.987375						
04919														-2.064135	-8.951832	1.799611	0.990501	0.136119	-0.019487	-0.137475	0.977221	-0.161679	-0.002965	0.162822	0.986651						
04920														-2.138425	-9.408952	1.875034	0.988566	0.149288	-0.021239	-0.150741	0.974732	-0.164850	-0.003908	0.166167	0.986090						
04921														-2.230281	-9.477513	2.175053	0.986801	0.160203	-0.023641	-0.161896	0.972623	-0.166715	-0.003714	0.168342	0.985722						
04922														-1.951162	-9.651985	2.471664	0.985291	0.168882	-0.026100	-0.170859	0.970859	-0.168050	-0.003042	0.170037	0.985433						
04923														-1.802431	-9.413486	2.541036	0.983894	0.176631	-0.027456	-0.178724	0.969328	-0.168706	-0.003185	0.170896	0.985284						
04924														-1.550871	-9.219187	2.512160	0.982706	0.183063	-0.027865	-0.185128	0.968027	-0.169269	-0.004013	0.171500	0.985176						
04925														-1.519138	-9.135785	2.439038	0.981984	0.186941	-0.027564	-0.188893	0.967199	-0.169838	-0.005090	0.171985	0.985086						
04926														-1.470210	-9.128526	2.295874	0.981843	0.187824	-0.026571	-0.189587	0.966912	-0.170699	-0.006369	0.172638	0.984965						
04927														-1.562016	-9.053186	2.119529	0.982306	0.185533	-0.025547	-0.187150	0.967287	-0.171261	-0.007063	0.173012	0.984894						
04928														-1.771968	-8.998634	2.208270	0.983335	0.180088	-0.024903	-0.181681	0.968419	-0.170750	-0.006633	0.172429	0.985000						
04929														-2.094700	-8.874570	2.296762	0.984879	0.171459	-0.024795	-0.173173	0.970278	-0.169032	-0.004924	0.170770	0.985299						
04930														-2.249077	-8.645880	2.515095	0.986614	0.161159	-0.024893	-0.163046	0.972256	-0.167730	-0.002829	0.169544	0.985519						
04931														-2.325013	-8.985879	2.841228	0.988213	0.151003	-0.025154	-0.153082	0.973951	-0.167288	-0.000762	0.169167	0.985587						
04932														-2.425425	-9.325525	2.877186	0.989584	0.141718	-0.025274	-0.143950	0.975511	-0.166303	0.001087	0.168209	0.985751						
04933														-2.241298	-9.308733	2.909476	0.990788	0.133128	-0.024819	-0.135399	0.977149	-0.163851	0.002439	0.165703	0.986173						
04934														-1.862737	-9.143781	3.008724	0.991980	0.124235	-0.023255	-0.126360	0.978974	-0.160134	0.002872	0.161788	0.986821						
04935														-1.754028	-9.205151	2.976782	0.993129	0.115024	-0.021535	-0.116980	0.980789	-0.156102	0.003166	0.157549	0.987506						
04936														-1.992887	-9.198721	2.786177	0.994256	0.105030	-0.020597	-0.106940	0.982769	-0.150761	0.004408	0.152098	0.988356						
04937														-2.227231	-9.628994	3.068589	0.995348	0.094002	-0.021138	-0.096075	0.984882	-0.144145	0.007268	0.145505	0.989331						
04938														-1.802772	-10.623170	3.179018	0.996440	0.081357	-0.022108	-0.083637	0.986926	-0.137774	0.010610	0.139133	0.990217						
04939														-1.256799	-10.322709	2.344566	0.997339	0.068830	-0.024042	-0.071430	0.988530	-0.133066	0.014607	0.134430	0.990815						
04940														-1.547014	-9.959013	1.670436	0.998019	0.055539	-0.029550	-0.059019	0.989204	-0.134132	0.021781	0.135610	0.990523						
04941														-0.975890	-10.747477	1.602310	0.998638	0.037596	-0.036168	-0.042317	0.989228	-0.140130	0.030510	0.141470	0.989472						
04942														0.131421	-11.833457	1.057777	0.999036	0.017433	-0.040287	-0.023144	0.989023	-0.145941	0.037301	0.146732	0.988473						
04943														0.391398	-11.460927	0.816610	0.999114	-0.002709	-0.042005	-0.003588	0.988813	-0.149119	0.041939	0.149138	0.987927						
04944														-0.595451	-10.916768	1.266539	0.998812	-0.023542	-0.042670	0.016792	0.988217	-0.152136	0.045748	0.151239	0.987438						
04945														-1.277356	-10.992604	1.431169	0.998050	-0.044714	-0.043558	0.037444	0.987145	-0.155380	0.049946	0.153446	0.986894						
04946														-1.344264	-10.509589	1.452763	0.996883	-0.064350	-0.045637	0.056443	0.985937	-0.157297	0.055117	0.154231	0.986496						
04947														-1.092401	-9.535892	1.601117	0.995473	-0.082073	-0.047938	0.073586	0.984719	-0.157839	0.060160	0.153597	0.986300						
04948														-0.862374	-8.791371	1.828063	0.993920	-0.098437	-0.049336	0.089552	0.983375	-0.157969	0.064066	0.152590	0.986211						
04949														-0.828139	-8.190693	1.991993	0.992153	-0.114868	-0.049381	0.105725	0.981582	-0.159119	0.066749	0.152650	0.986024						
04950														-0.931014	-7.968484	2.023646	0.990282	-0.130391	-0.048365	0.121079	0.979431	-0.161413	0.068417	0.153989	0.985701						
04951														-0.954222	-8.032610	1.968231	0.988391	-0.144632	-0.046517	0.135198	0.976985	-0.164989	0.069310	0.156785	0.985198						
04952														-0.802451	-8.382750	1.940650	0.986423	-0.158064	-0.044554	0.148425	0.974198	-0.170025	0.070280	0.161104	0.984432						
04953														-0.726138	-8.851624	1.880196	0.984415	-0.170626	-0.042594	0.160743	0.971242	-0.175644	0.071338	0.166060	0.983532						
04954														-0.798039	-9.478262	1.878817	0.982663	-0.180929	-0.040472	0.170864	0.968509	-0.181094	0.071962	0.171039	0.982633						
04955														-0.856576	-9.487507	1.689521	0.981295	-0.188684	-0.038194	0.178607	0.966356	-0.185084	0.071832	0.174800	0.981980						
04956														-0.900389	-9.431472	1.605839	0.980499	-0.193160	-0.036210	0.183158	0.964955	-0.187923	0.071240	0.177626	0.981516						
04957														-0.906791	-9.521103	1.589805	0.980210	-0.194861	-0.034904	0.184919	0.964224	-0.189942	0.070668	0.179728	0.981175						
04958														-0.871721	-9.703821	1.808892	0.980365	-0.194258	-0.033888	0.184500	0.964278	-0.190075	0.069601	0.180090	0.981185						
04959														-0.891126	-9.635659	2.148160	0.981028	-0.191022	-0.033102	0.181598	0.965222	-0.188065	0.067875	0.178485	0.981599						
04960														-0.925590	-9.354533	2.276412	0.982196	-0.185046	-0.032385	0.176131	0.967050	-0.183828	0.065334	0.174851	0.982425						
04961														-0.876643	-9.053070	2.190305	0.983848	-0.176154	-0.031842	0.167802	0.969497	-0.178654	0.062341	0.170425	0.983397						
04962														-0.634387	-9.050956	2.249657	0.985616	-0.165955	-0.031927	0.158036	0.972021	-0.173779	0.059873	0.166234	0.984267						
04963														-0.395964	-9.270410	2.646581	0.987259	-0.155846	-0.032133	0.148285	0.974312	-0.169491	0.057722	0.162566	0.985008						
04964														-0.287760	-9.280206	2.675489	0.988743	-0.146259	-0.031554	0.139153	0.976371	-0.165337	0.054991	0.159085	0.985732						
04965														-0.395983	-9.409277	2.775520	0.990176	-0.136641	-0.029677	0.130200	0.978389	-0.160631	0.050985	0.155189	0.986568						
04966														-0.796664	-9.774764	2.861692	0.991676	-0.125925	-0.026877	0.120314	0.980567	-0.154964	0.045869	0.150440	0.987554						
04967														-1.101724	-10.316454	3.021663	0.993242	-0.113625	-0.023641	0.108913	0.982919	-0.148353	0.040094	0.144776	0.988652						
04968														-1.541537	-11.579104	2.873274	0.994729	-0.100617	-0.019760	0.096772	0.984903	-0.143529	0.033903	0.140860	0.989449						
04969														-1.592682	-10.893782	2.175720	0.995974	-0.088149	-0.016299	0.085029	0.986545	-0.139637	0.028388	0.137689	0.990069						
04970														-1.778269	-10.052709	1.911056	0.997200	-0.073517	-0.013685	0.070945	0.987936	-0.137654	0.023640	0.136297	0.990386						
04971														-2.080582	-9.412674	2.166494	0.998293	-0.057398	-0.010815	0.055370	0.988942	-0.137577	0.018592	0.136743	0.990432						
04972														-2.349526	-8.857669	2.159749	0.999161	-0.040293	-0.007359	0.038883	0.989557	-0.138799	0.012875	0.138396	0.990293						
04973														-2.473590	-9.024103	1.717644	0.999752	-0.021941	-0.003852	0.021175	0.989690	-0.141650	0.006920	0.141533	0.989909						
04974														-2.428100	-9.308427	1.642758	0.999995	-0.002902	-0.001114	0.002708	0.989233	-0.146327	0.001527	0.146324	0.989236						
04975														-2.398359	-10.175661	1.789601	0.999868	0.016224	-0.000974	-0.016181	0.988085	-0.153054	-0.001521	0.153049	0.988217						
04976														-2.314385	-10.488924	1.691577	0.999369	0.035384	-0.003118	-0.035428	0.986538	-0.159650	-0.002574	0.159660	0.987169						
04977														-2.119841	-10.310896	1.671016	0.998556	0.053403	-0.005917	-0.053647	0.984893	-0.164645	-0.002965	0.164724	0.986335						
04978														-1.926196	-9.911024	1.803630	0.997538	0.069692	-0.007758	-0.070001	0.983225	-0.168427	-0.004110	0.168555	0.985684						
04979														-1.893271	-9.307516	1.857126	0.996373	0.084705	-0.008133	-0.084844	0.981549	-0.171358	-0.006532	0.171427	0.985175						
04980														-1.895885	-8.845296	1.944938	0.995102	0.098511	-0.008178	-0.098426	0.979795	-0.174109	-0.009139	0.174061	0.984692						
04981														-1.772816	-8.305461	2.097924	0.993792	0.110956	-0.008090	-0.110636	0.978062	-0.176506	-0.011672	0.176305	0.984266						
04982														-1.463973	-8.069056	1.763358	0.992493	0.122018	-0.008377	-0.121536	0.976263	-0.179274	-0.013696	0.178946	0.983764						
04983														-1.593803	-8.244720	1.469921	0.991263	0.131552	-0.009596	-0.131067	0.974208	-0.183683	-0.014815	0.183336	0.982939						
04984														-1.868283	-8.693391	1.378639	0.990272	0.138629	-0.012005	-0.138393	0.972256	-0.188589	-0.014472	0.188415	0.981983						
04985														-1.950782	-9.069292	1.500164	0.989673	0.142504	-0.015485	-0.142816	0.971007	-0.191703	-0.012282	0.191935	0.981331						
04986														-1.991326	-9.284533	1.582243	0.989545	0.142903	-0.019495	-0.143975	0.970777	-0.192000	-0.008512	0.192799	0.981201						
04987														-1.970334	-9.354788	1.912867	0.989835	0.140329	-0.023117	-0.142158	0.971475	-0.189810	-0.004178	0.191167	0.981549						
04988														-2.167140	-9.504135	2.170736	0.990512	0.134873	-0.026367	-0.137425	0.972877	-0.186079	0.000555	0.187936	0.982181						
04989														-2.216117	-9.510061	2.364811	0.991357	0.128032	-0.028614	-0.131105	0.974720	-0.180921	0.004727	0.183109	0.983081						
04990														-2.233650	-9.431772	2.538609	0.992353	0.119752	-0.029914	-0.123153	0.976866	-0.174831	0.008286	0.177178	0.984144						
04991														-2.200927	-9.367007	2.644399	0.993537	0.109397	-0.030283	-0.112950	0.979293	-0.168009	0.011276	0.170344	0.985320						
04992														-1.983143	-9.804574	2.859323	0.994832	0.096796	-0.030649	-0.100500	0.981712	-0.161684	0.014438	0.163929	0.986366						
04993														-2.044137	-10.519765	2.843616	0.995956	0.084237	-0.031225	-0.088132	0.983538	-0.157753	0.017422	0.159867	0.986985						
04994														-2.668337	-9.963745	2.637370	0.996792	0.073089	-0.032604	-0.077300	0.984780	-0.155670	0.020730	0.157691	0.987271						
04995														-2.703241	-10.038402	2.175385	0.997444	0.061625	-0.036156	-0.066545	0.985495	-0.156111	0.026011	0.158118	0.987078						
04996														-1.863992	-10.983617	1.946594	0.998013	0.048461	-0.040276	-0.054233	0.986044	-0.157406	0.032086	0.159277	0.986712						
04997														-1.255914	-11.129930	1.935073	0.998534	0.033500	-0.042526	-0.039781	0.986844	-0.156707	0.036717	0.158169	0.986729						
04998														-0.967281	-10.479700	1.869658	0.998961	0.016055	-0.042663	-0.022467	0.987763	-0.154338	0.039663	0.155136	0.987097						
04999														-0.630955	-9.213443	1.967456	0.999079	-0.002704	-0.042814	-0.003869	0.988264	-0.152706	0.042724	0.152731	0.987344						
05000														-0.290707	-8.402124	2.002610	0.998790	-0.022278	-0.043835	0.015254	0.987876	-0.154495	0.046745	0.153640	0.987021						
