// General information: 
//  MT Manager version: 2022.2.0 
//  XDA version: 2022.2.0 build 7381 rev 124627 built on 2023-07-19
// Device information: 
//  DeviceId: 00B4D4C3
//  ProductCode: MTW2-3A7G6
//  Firmware Version: 4.6.0
//  Hardware Version: 2.0.0
// Device settings: 
//  Filter Profile: human(46.1)
//  Option Flags: Orientation Smoother Disabled, Position/Velocity Smoother Disabled, Continuous Zero Rotation Update Disabled, AHS Disabled, ICC Disabled
// Coordinate system: ENU
PacketCounter	SampleTimeFine	Year	Month	Day	Second	UTC_Nano	UTC_Year	UTC_Month	UTC_Day	UTC_Hour	UTC_Minute	UTC_Second	UTC_Valid	Acc_X	Acc_Y	Acc_Z	Mat[1][1]	Mat[2][1]	Mat[3][1]	Mat[1][2]	Mat[2][2]	Mat[3][2]	Mat[1][3]	Mat[2][3]	Mat[3][3]	Latitude	Longitude	Altitude	Vel_E	Vel_N	Vel_U
04221														0.669112	-9.467334	-2.516566	0.999457	-0.031072	0.010955	0.031046	0.999515	0.002539	-0.011028	-0.002198	0.999937						
04222														0.719968	-9.458668	-2.501648	0.999464	-0.030719	0.011278	0.030698	0.999527	0.002019	-0.011335	-0.001671	0.999934						
04223														0.714765	-9.495089	-2.480205	0.999494	-0.029599	0.011618	0.029584	0.999561	0.001457	-0.011656	-0.001113	0.999931						
04224														0.676783	-9.453761	-2.547388	0.999512	-0.028871	0.011927	0.028860	0.999583	0.001029	-0.011952	-0.000684	0.999928						
04225														0.637519	-9.409101	-2.557952	0.999515	-0.028623	0.012252	0.028618	0.999590	0.000578	-0.012263	-0.000227	0.999925						
04226														0.625649	-9.391216	-2.556776	0.999506	-0.028787	0.012601	0.028789	0.999586	-0.000007	-0.012595	0.000370	0.999921						
04227														0.646888	-9.464413	-2.558519	0.999505	-0.028689	0.012885	0.028700	0.999588	-0.000606	-0.012862	0.000975	0.999917						
04228														0.710957	-9.466547	-2.561464	0.999500	-0.028763	0.013121	0.028779	0.999585	-0.001027	-0.013086	0.001404	0.999913						
04229														0.712536	-9.414753	-2.547332	0.999482	-0.029302	0.013334	0.029324	0.999569	-0.001387	-0.013287	0.001777	0.999910						
04230														0.643619	-9.421258	-2.534800	0.999451	-0.030165	0.013720	0.030194	0.999542	-0.001912	-0.013656	0.002325	0.999904						
04231														0.594505	-9.509070	-2.632597	0.999429	-0.030724	0.014080	0.030758	0.999524	-0.002228	-0.014005	0.002660	0.999898						
04232														0.720873	-9.504707	-2.696712	0.999404	-0.031420	0.014302	0.031452	0.999503	-0.002008	-0.014232	0.002457	0.999896						
04233														0.813539	-9.337183	-2.645371	0.999366	-0.032552	0.014408	0.032578	0.999468	-0.001584	-0.014349	0.002052	0.999895						
04234														0.827419	-9.302818	-2.596152	0.999339	-0.033332	0.014492	0.033356	0.999443	-0.001408	-0.014437	0.001891	0.999894						
04235														0.814840	-9.365843	-2.586051	0.999321	-0.033760	0.014772	0.033785	0.999428	-0.001418	-0.014716	0.001917	0.999890						
04236														0.716754	-9.446044	-2.549827	0.999301	-0.034231	0.015050	0.034260	0.999412	-0.001672	-0.014984	0.002187	0.999885						
04237														0.593776	-9.518672	-2.505630	0.999279	-0.034719	0.015346	0.034753	0.999394	-0.001928	-0.015270	0.002460	0.999880						
04238														0.542464	-9.513262	-2.388799	0.999272	-0.034865	0.015514	0.034899	0.999389	-0.001970	-0.015436	0.002510	0.999878						
04239														0.556847	-9.509593	-2.379840	0.999278	-0.034615	0.015674	0.034650	0.999398	-0.001964	-0.015597	0.002506	0.999875						
04240														0.720429	-9.502373	-2.465489	0.999278	-0.034527	0.015879	0.034559	0.999401	-0.001778	-0.015808	0.002325	0.999872						
04241														0.823293	-9.439247	-2.510295	0.999262	-0.034894	0.016041	0.034921	0.999389	-0.001443	-0.015981	0.002002	0.999870						
04242														0.872365	-9.384294	-2.529618	0.999216	-0.036069	0.016340	0.036093	0.999348	-0.001137	-0.016288	0.001725	0.999866						
04243														0.745040	-9.371486	-2.565580	0.999144	-0.037793	0.016834	0.037818	0.999284	-0.001149	-0.016779	0.001785	0.999858						
04244														0.614821	-9.452161	-2.583031	0.999070	-0.039437	0.017427	0.039466	0.999220	-0.001372	-0.017359	0.002059	0.999847						
04245														0.600663	-9.469598	-2.539159	0.999032	-0.040262	0.017713	0.040294	0.999187	-0.001482	-0.017639	0.002194	0.999842						
04246														0.668633	-9.449885	-2.544079	0.999016	-0.040584	0.017871	0.040618	0.999174	-0.001551	-0.017793	0.002275	0.999839						
04247														0.716039	-9.479734	-2.542185	0.999020	-0.040450	0.017992	0.040484	0.999179	-0.001509	-0.017916	0.002236	0.999837						
04248														0.801348	-9.403210	-2.540918	0.999026	-0.040254	0.018098	0.040289	0.999187	-0.001530	-0.018022	0.002257	0.999835						
04249														0.750575	-9.393387	-2.569032	0.998996	-0.040904	0.018246	0.040942	0.999160	-0.001713	-0.018160	0.002458	0.999832						
04250														0.648680	-9.396818	-2.561355	0.998964	-0.041623	0.018412	0.041666	0.999130	-0.001984	-0.018313	0.002749	0.999829						
04251														0.600327	-9.467524	-2.519686	0.998950	-0.041915	0.018477	0.041965	0.999116	-0.002343	-0.018362	0.003116	0.999827						
04252														0.605922	-9.480258	-2.519861	0.998951	-0.041922	0.018420	0.041979	0.999115	-0.002695	-0.018291	0.003466	0.999827						
04253														0.623461	-9.465028	-2.486994	0.998956	-0.041811	0.018413	0.041873	0.999119	-0.002961	-0.018273	0.003729	0.999826						
04254														0.704037	-9.478261	-2.510181	0.998957	-0.041754	0.018496	0.041815	0.999121	-0.002943	-0.018357	0.003714	0.999825						
04255														0.746682	-9.433399	-2.559161	0.998949	-0.041871	0.018631	0.041933	0.999116	-0.002944	-0.018491	0.003722	0.999822						
04256														0.708663	-9.413489	-2.600522	0.998944	-0.041991	0.018665	0.042054	0.999111	-0.002997	-0.018523	0.003778	0.999821						
04257														0.650036	-9.446927	-2.591712	0.998959	-0.041630	0.018654	0.041695	0.999126	-0.003107	-0.018508	0.003881	0.999821						
04258														0.641645	-9.455047	-2.653050	0.998988	-0.040931	0.018666	0.040997	0.999154	-0.003164	-0.018521	0.003926	0.999821						
04259														0.704616	-9.420133	-2.634387	0.999015	-0.040265	0.018623	0.040329	0.999182	-0.003072	-0.018484	0.003820	0.999822						
04260														0.698458	-9.366679	-2.652008	0.999025	-0.040037	0.018601	0.040098	0.999191	-0.002936	-0.018469	0.003679	0.999823						
04261														0.725393	-9.432284	-2.652020	0.999035	-0.039805	0.018578	0.039864	0.999201	-0.002788	-0.018452	0.003526	0.999824						
04262														0.772695	-9.392569	-2.595600	0.999043	-0.039601	0.018557	0.039657	0.999210	-0.002653	-0.018438	0.003386	0.999824						
04263														0.809650	-9.420547	-2.620076	0.999035	-0.039781	0.018631	0.039834	0.999203	-0.002510	-0.018516	0.003250	0.999823						
04264														0.760644	-9.431214	-2.623410	0.999008	-0.040417	0.018699	0.040466	0.999178	-0.002276	-0.018592	0.003030	0.999823						
04265														0.697165	-9.434532	-2.566109	0.998987	-0.040959	0.018656	0.041005	0.999157	-0.002096	-0.018555	0.002859	0.999824						
04266														0.705456	-9.418309	-2.556150	0.998964	-0.041496	0.018656	0.041538	0.999135	-0.001863	-0.018563	0.002636	0.999824						
04267														0.661812	-9.485567	-2.562424	0.998937	-0.042098	0.018754	0.042138	0.999110	-0.001741	-0.018664	0.002530	0.999823						
04268														0.598570	-9.538112	-2.489545	0.998928	-0.042284	0.018844	0.042325	0.999102	-0.001756	-0.018753	0.002552	0.999821						
04269														0.613991	-9.508177	-2.430022	0.998949	-0.041813	0.018760	0.041849	0.999123	-0.001507	-0.018680	0.002291	0.999823						
04270														0.663796	-9.395167	-2.463116	0.998961	-0.041560	0.018705	0.041585	0.999135	-0.000921	-0.018650	0.001698	0.999825						
04271														0.699596	-9.408875	-2.561590	0.998951	-0.041756	0.018779	0.041772	0.999127	-0.000436	-0.018744	0.001220	0.999824						
04272														0.716256	-9.429331	-2.583609	0.998955	-0.041676	0.018747	0.041689	0.999131	-0.000284	-0.018719	0.001065	0.999824						
04273														0.785971	-9.444755	-2.588150	0.998957	-0.041703	0.018604	0.041715	0.999129	-0.000276	-0.018576	0.001052	0.999827						
04274														0.880779	-9.435521	-2.564218	0.998914	-0.042710	0.018620	0.042717	0.999087	0.000016	-0.018603	0.000779	0.999827						
04275														0.881216	-9.442848	-2.538286	0.998850	-0.044125	0.018768	0.044127	0.999026	0.000293	-0.018762	0.000536	0.999824						
04276														0.730581	-9.452624	-2.486625	0.998809	-0.045046	0.018732	0.045048	0.998985	0.000332	-0.018728	0.000512	0.999824						
04277														0.620593	-9.472217	-2.458045	0.998795	-0.045451	0.018529	0.045451	0.998966	0.000437	-0.018530	0.000405	0.999828						
04278														0.633095	-9.452492	-2.433731	0.998774	-0.046024	0.018249	0.046021	0.998940	0.000582	-0.018257	0.000259	0.999833						
04279														0.656517	-9.481771	-2.340795	0.998735	-0.046910	0.018126	0.046906	0.998899	0.000655	-0.018137	0.000196	0.999835						
04280														0.641393	-9.487520	-2.336012	0.998717	-0.047262	0.018159	0.047256	0.998883	0.000784	-0.018176	0.000075	0.999835						
04281														0.673250	-9.497911	-2.473797	0.998739	-0.046796	0.018184	0.046786	0.998904	0.001014	-0.018212	-0.000162	0.999834						
04282														0.661761	-9.398475	-2.523933	0.998760	-0.046334	0.018232	0.046321	0.998926	0.001138	-0.018265	-0.000292	0.999833						
04283														0.644130	-9.412446	-2.523624	0.998768	-0.046136	0.018287	0.046128	0.998935	0.000864	-0.018308	-0.000019	0.999832						
04284														0.633620	-9.408663	-2.519264	0.998776	-0.045940	0.018357	0.045936	0.998944	0.000642	-0.018367	0.000202	0.999831						
04285														0.645689	-9.428561	-2.538173	0.998788	-0.045670	0.018356	0.045671	0.998956	0.000352	-0.018353	0.000487	0.999831						
04286														0.719958	-9.505894	-2.526625	0.998818	-0.045028	0.018311	0.045030	0.998986	0.000265	-0.018305	0.000560	0.999832						
04287														0.754785	-9.411913	-2.484918	0.998856	-0.044201	0.018273	0.044202	0.999023	0.000334	-0.018270	0.000474	0.999833						
04288														0.738873	-9.402402	-2.559527	0.998883	-0.043581	0.018283	0.043585	0.999050	0.000158	-0.018273	0.000639	0.999833						
04289														0.748596	-9.435362	-2.636773	0.998894	-0.043287	0.018332	0.043296	0.999062	-0.000076	-0.018312	0.000870	0.999832						
04290														0.743730	-9.406479	-2.615210	0.998887	-0.043444	0.018392	0.043457	0.999055	-0.000290	-0.018362	0.001089	0.999831						
04291														0.784933	-9.454134	-2.551230	0.998883	-0.043527	0.018368	0.043538	0.999052	-0.000229	-0.018341	0.001028	0.999831						
04292														0.778146	-9.414571	-2.560668	0.998874	-0.043741	0.018362	0.043753	0.999042	-0.000247	-0.018333	0.001050	0.999831						
04293														0.735467	-9.439681	-2.597664	0.998854	-0.044218	0.018308	0.044233	0.999021	-0.000418	-0.018272	0.001227	0.999832						
04294														0.667963	-9.464570	-2.536587	0.998823	-0.044892	0.018359	0.044908	0.998991	-0.000491	-0.018318	0.001315	0.999831						
04295														0.646386	-9.458524	-2.457956	0.998794	-0.045523	0.018396	0.045542	0.998962	-0.000625	-0.018349	0.001462	0.999831						
04296														0.583212	-9.453858	-2.492743	0.998765	-0.046137	0.018419	0.046157	0.998934	-0.000682	-0.018368	0.001532	0.999830						
04297														0.633117	-9.425164	-2.505256	0.998743	-0.046637	0.018368	0.046656	0.998911	-0.000607	-0.018320	0.001463	0.999831						
04298														0.713906	-9.410742	-2.546268	0.998723	-0.047069	0.018335	0.047087	0.998891	-0.000592	-0.018287	0.001455	0.999832						
04299														0.708932	-9.450172	-2.552052	0.998713	-0.047291	0.018325	0.047312	0.998880	-0.000737	-0.018270	0.001603	0.999832						
04300														0.624844	-9.440882	-2.542397	0.998700	-0.047574	0.018286	0.047599	0.998866	-0.000935	-0.018221	0.001804	0.999832						
04301														0.607035	-9.444156	-2.508364	0.998682	-0.047942	0.018306	0.047971	0.998848	-0.001168	-0.018229	0.002045	0.999832						
04302														0.649550	-9.463617	-2.464264	0.998676	-0.048044	0.018395	0.048075	0.998843	-0.001264	-0.018313	0.002147	0.999830						
04303														0.661485	-9.465635	-2.435071	0.998682	-0.047868	0.018509	0.047900	0.998851	-0.001308	-0.018425	0.002193	0.999828						
04304														0.680611	-9.440010	-2.533854	0.998689	-0.047689	0.018587	0.047722	0.998860	-0.001352	-0.018501	0.002237	0.999826						
04305														0.699030	-9.421303	-2.543493	0.998697	-0.047519	0.018606	0.047554	0.998868	-0.001412	-0.018518	0.002295	0.999826						
04306														0.681316	-9.399598	-2.551354	0.998691	-0.047595	0.018734	0.047633	0.998864	-0.001569	-0.018638	0.002459	0.999823						
04307														0.651019	-9.387967	-2.545997	0.998687	-0.047624	0.018847	0.047667	0.998862	-0.001823	-0.018738	0.002719	0.999821						
04308														0.684189	-9.461777	-2.592961	0.998694	-0.047451	0.018960	0.047501	0.998869	-0.002170	-0.018836	0.003068	0.999818						
04309														0.736182	-9.457109	-2.566116	0.998705	-0.047161	0.019100	0.047218	0.998881	-0.002549	-0.018958	0.003447	0.999814						
04310														0.731822	-9.477301	-2.528660	0.998726	-0.046674	0.019202	0.046739	0.998903	-0.002945	-0.019043	0.003839	0.999811						
04311														0.729452	-9.434917	-2.449843	0.998746	-0.046202	0.019279	0.046273	0.998923	-0.003286	-0.019106	0.004174	0.999809						
04312														0.731105	-9.458981	-2.475675	0.998748	-0.046089	0.019424	0.046165	0.998928	-0.003491	-0.019243	0.004383	0.999805						
04313														0.743591	-9.453770	-2.536662	0.998723	-0.046561	0.019611	0.046640	0.998905	-0.003616	-0.019421	0.004526	0.999801						
04314														0.748309	-9.447762	-2.556471	0.998692	-0.047164	0.019751	0.047246	0.998876	-0.003725	-0.019554	0.004653	0.999798						
04315														0.707554	-9.416335	-2.531703	0.998657	-0.047868	0.019841	0.047954	0.998842	-0.003878	-0.019632	0.004824	0.999796						
04316														0.723846	-9.477403	-2.528841	0.998624	-0.048491	0.019955	0.048579	0.998812	-0.003942	-0.019740	0.004906	0.999793						
04317														0.685015	-9.436484	-2.569635	0.998588	-0.049174	0.020113	0.049266	0.998777	-0.004128	-0.019886	0.005113	0.999789						
04318														0.655509	-9.396942	-2.584226	0.998570	-0.049494	0.020188	0.049594	0.998759	-0.004490	-0.019941	0.005484	0.999786						
04319														0.631396	-9.466919	-2.539310	0.998580	-0.049297	0.020185	0.049403	0.998767	-0.004784	-0.019924	0.005774	0.999785						
04320														0.679960	-9.482729	-2.479927	0.998602	-0.048870	0.020166	0.048976	0.998788	-0.004799	-0.019907	0.005780	0.999785						
04321														0.789831	-9.547642	-2.547861	0.998613	-0.048665	0.020111	0.048775	0.998797	-0.004981	-0.019844	0.005955	0.999785						
04322														0.910305	-9.598220	-2.572563	0.998621	-0.048588	0.019877	0.048690	0.998803	-0.004664	-0.019627	0.005626	0.999792						
04323														0.985247	-9.461848	-2.441434	0.998601	-0.049102	0.019600	0.049187	0.998782	-0.003870	-0.019386	0.004828	0.999800						
04324														0.920843	-9.301457	-2.417996	0.998568	-0.049889	0.019310	0.049960	0.998746	-0.003204	-0.019126	0.004164	0.999808						
04325														0.828783	-9.465874	-2.578113	0.998540	-0.050535	0.019096	0.050595	0.998716	-0.002648	-0.018938	0.003610	0.999814						
04326														0.764749	-9.582376	-2.546768	0.998543	-0.050649	0.018633	0.050688	0.998713	-0.001592	-0.018529	0.002534	0.999825						
04327														0.757484	-9.601455	-2.206951	0.998612	-0.049649	0.017581	0.049652	0.998767	0.000292	-0.017574	0.000582	0.999845						
04328														0.830786	-9.664027	-2.076071	0.998722	-0.047935	0.016039	0.047901	0.998849	0.002546	-0.016143	-0.001775	0.999868						
04329														0.904285	-9.356084	-2.438363	0.998839	-0.046004	0.014297	0.045947	0.998935	0.004299	-0.014480	-0.003637	0.999889						
04330														0.928593	-9.197627	-2.758725	0.998953	-0.043957	0.012668	0.043895	0.999023	0.005104	-0.012880	-0.004542	0.999907						
04331														0.813425	-9.509406	-2.719698	0.999052	-0.042074	0.011196	0.042010	0.999100	0.005924	-0.011435	-0.005448	0.999920						
04332														0.681734	-9.564168	-2.387087	0.999198	-0.038926	0.009352	0.038862	0.999221	0.006883	-0.009613	-0.006514	0.999933						
04333														0.702348	-9.267711	-2.042394	0.999325	-0.035992	0.007370	0.035933	0.999323	0.007880	-0.007648	-0.007610	0.999942						
04334														0.785319	-8.813321	-2.233956	0.999389	-0.034471	0.005831	0.034421	0.999371	0.008548	-0.006122	-0.008342	0.999946						
04335														0.953382	-8.594543	-3.283522	0.999346	-0.035676	0.005828	0.035638	0.999344	0.006416	-0.006053	-0.006204	0.999962						
04336														0.659630	-9.291392	-4.010580	0.999300	-0.036923	0.006028	0.036919	0.999318	0.000734	-0.006051	-0.000511	0.999982						
04337														0.015711	-10.221614	-3.583934	0.999427	-0.033651	0.003702	0.033670	0.999420	-0.005049	-0.003530	0.005170	0.999980						
04338														0.585145	-10.457408	-2.321794	0.999669	-0.025688	-0.001380	0.025678	0.999644	-0.007293	0.001567	0.007256	0.999972						
04339														1.133404	-9.980483	-1.579290	0.999779	-0.020282	-0.005595	0.020236	0.999762	-0.008151	0.005759	0.008036	0.999951						
04340														1.194391	-9.537024	-2.013932	0.999743	-0.021187	-0.008043	0.021124	0.999747	-0.007773	0.008206	0.007601	0.999937						
04341														1.044165	-9.160638	-3.098909	0.999523	-0.029446	-0.009342	0.029379	0.999542	-0.007205	0.009550	0.006928	0.999930						
04342														0.741295	-9.291609	-2.942722	0.999091	-0.041398	-0.010184	0.041337	0.999126	-0.006198	0.010431	0.005771	0.999929						
04343														0.355740	-8.937829	-2.453588	0.998447	-0.054682	-0.010642	0.054621	0.998490	-0.005897	0.010949	0.005306	0.999926						
04344														-0.516907	-9.034639	-2.544212	0.997690	-0.066945	-0.011535	0.066875	0.997741	-0.006406	0.011937	0.005620	0.999913						
04345														-0.826599	-9.184625	-2.840567	0.997175	-0.074078	-0.012462	0.074002	0.997237	-0.006434	0.012904	0.005493	0.999902						
04346														-0.102338	-9.088915	-3.177775	0.997154	-0.074180	-0.013496	0.074073	0.997219	-0.008220	0.014068	0.007197	0.999875						
04347														0.785176	-9.000837	-3.475436	0.997366	-0.071041	-0.014650	0.070878	0.997420	-0.011369	0.015420	0.010301	0.999828						
04348														1.309314	-9.209111	-3.424098	0.997627	-0.066835	-0.016555	0.066608	0.997682	-0.013905	0.017446	0.012769	0.999766						
04349														1.419804	-9.467903	-3.164425	0.997786	-0.063714	-0.019056	0.063432	0.997873	-0.015022	0.019973	0.013780	0.999706						
04350														1.268554	-9.572035	-3.300696	0.997793	-0.062715	-0.021822	0.062367	0.997921	-0.016269	0.022797	0.014872	0.999630						
04351														1.061632	-9.168217	-3.109019	0.997680	-0.063467	-0.024640	0.063047	0.997858	-0.017443	0.025694	0.015849	0.999544						
04352														0.546110	-9.187592	-3.201721	0.997506	-0.065249	-0.026914	0.064779	0.997738	-0.017967	0.028025	0.016178	0.999476						
04353														0.341659	-9.217127	-3.107423	0.997490	-0.064270	-0.029725	0.063733	0.997792	-0.018678	0.030860	0.016737	0.999384						
04354														0.415022	-8.643637	-2.887770	0.997535	-0.061766	-0.033297	0.061121	0.997929	-0.020042	0.034466	0.017957	0.999245						
04355														0.584797	-8.214390	-3.137192	0.997576	-0.059540	-0.036009	0.058774	0.998029	-0.021982	0.037247	0.019813	0.999110						
04356														0.065791	-8.250288	-3.314326	0.997757	-0.055634	-0.037232	0.054710	0.998179	-0.025414	0.038578	0.023320	0.998983						
04357														-0.515815	-8.603371	-3.082385	0.997993	-0.050553	-0.038139	0.049435	0.998336	-0.029702	0.039578	0.027757	0.998831						
04358														-0.236803	-9.035411	-3.150154	0.997957	-0.052016	-0.037099	0.050671	0.998054	-0.036328	0.038916	0.034373	0.998651						
04359														-0.601308	-9.627668	-2.792150	0.997616	-0.059987	-0.034124	0.058393	0.997236	-0.045933	0.036785	0.043831	0.998362						
04360														-0.890452	-10.064560	-2.731109	0.996881	-0.073491	-0.028768	0.071756	0.995776	-0.057282	0.032856	0.055039	0.997943						
04361														-1.586073	-10.391881	-3.018139	0.996069	-0.085808	-0.021988	0.084140	0.994130	-0.068009	0.027694	0.065892	0.997442						
04362														-2.485278	-9.996459	-2.928783	0.995752	-0.090471	-0.017099	0.088923	0.993117	-0.076234	0.023879	0.074389	0.996943						
04363														-2.502824	-9.813319	-2.746958	0.996341	-0.084090	-0.015260	0.082537	0.993088	-0.083455	0.022173	0.081890	0.996395						
04364														-1.720362	-9.486186	-2.612854	0.997401	-0.070533	-0.014706	0.068934	0.993551	-0.090031	0.020961	0.088783	0.995830						
04365														-0.734269	-9.129933	-2.430881	0.998256	-0.057460	-0.013548	0.055891	0.993759	-0.096541	0.019010	0.095616	0.995237						
04366														0.514737	-8.960353	-2.590499	0.998708	-0.049669	-0.010757	0.048304	0.993529	-0.102796	0.015794	0.102144	0.994644						
04367														1.069530	-8.938858	-1.991215	0.998776	-0.049118	-0.005893	0.048186	0.992882	-0.108916	0.011201	0.108499	0.994033						
04368														0.934985	-9.153540	-1.731207	0.998402	-0.056469	0.001935	0.056322	0.991889	-0.113944	0.004515	0.113871	0.993485						
04369														0.597301	-9.375764	-2.141176	0.997496	-0.069646	0.012255	0.070606	0.990558	-0.117512	-0.003956	0.118083	0.992996						
04370														-0.070327	-9.570545	-2.142103	0.996314	-0.082575	0.023249	0.084775	0.989202	-0.119554	-0.013125	0.121084	0.992555						
04371														-1.022356	-10.303465	-2.046043	0.995037	-0.094031	0.032563	0.097265	0.988156	-0.118690	-0.021017	0.121269	0.992397						
04372														-0.979795	-11.398400	-2.072687	0.993891	-0.103713	0.037740	0.107305	0.988049	-0.110655	-0.025812	0.114029	0.993142						
04373														-0.451851	-11.996651	-0.856060	0.993304	-0.109468	0.036941	0.112479	0.989309	-0.092825	-0.026385	0.096358	0.994997						
04374														-0.123346	-12.845035	0.410112	0.993189	-0.112043	0.031965	0.113890	0.991468	-0.063413	-0.024587	0.066622	0.997475						
04375														0.623555	-12.983639	0.448846	0.992928	-0.115405	0.027849	0.116106	0.992922	-0.025006	-0.024766	0.028063	0.999299						
04376														1.008137	-12.169977	-0.379843	0.992398	-0.120168	0.026568	0.119451	0.992470	0.027105	-0.029625	-0.023725	0.999279						
04377														1.464743	-11.190980	-1.892957	0.990975	-0.131574	0.025623	0.129187	0.988444	0.079309	-0.035762	-0.075283	0.996521						
04378														1.901598	-12.206664	-1.990926	0.990173	-0.138438	0.019794	0.134774	0.982428	0.129120	-0.037322	-0.125184	0.991431						
04379														1.529217	-11.966612	-2.803902	0.991488	-0.129940	0.008193	0.126401	0.975747	0.178719	-0.031217	-0.176162	0.983866						
04380														1.308298	-10.606236	-4.006400	0.993946	-0.109777	-0.004542	0.107961	0.968165	0.225832	-0.020394	-0.224956	0.974156						
04381														-0.202097	-10.193496	-3.037795	0.995273	-0.096331	-0.012356	0.096130	0.958999	0.266609	-0.013833	-0.266536	0.963726						
04382														0.270161	-10.466286	-1.665060	0.996912	-0.077267	-0.013977	0.077843	0.949163	0.305008	-0.010301	-0.305154	0.952247						
04383														2.108173	-9.393921	-1.179322	0.998392	-0.055026	-0.013623	0.056369	0.938260	0.341307	-0.005999	-0.341526	0.939853						
04384														2.393786	-8.367538	-1.129780	0.999164	-0.038651	-0.013319	0.040829	0.927005	0.372819	-0.002063	-0.373051	0.927809						
04385														2.267932	-8.213322	-0.974042	0.999557	-0.026250	-0.014058	0.029676	0.917130	0.397482	0.002459	-0.397723	0.917502						
04386														2.335149	-7.812203	-0.799135	0.999727	-0.017281	-0.015719	0.022246	0.909661	0.414756	0.007131	-0.414992	0.909797						
04387														2.305034	-7.335344	-0.446342	0.999758	-0.011637	-0.018688	0.018479	0.904967	0.425080	0.011965	-0.425322	0.904963						
04388														1.545755	-6.824023	0.347690	0.999683	-0.009250	-0.023402	0.018421	0.902589	0.430110	0.017144	-0.430405	0.902473						
04389														1.074097	-6.482544	0.283110	0.999575	-0.009081	-0.027711	0.020146	0.902086	0.431086	0.021083	-0.431461	0.901885						
04390														0.927804	-6.416090	0.373134	0.999518	-0.008041	-0.029987	0.020144	0.902932	0.429311	0.023624	-0.429708	0.902659						
04391														0.497696	-6.787716	1.070933	0.999451	-0.006357	-0.032505	0.019537	0.905633	0.423611	0.026745	-0.424014	0.905261						
04392														0.033317	-7.839826	1.989190	0.999340	-0.003213	-0.036171	0.017865	0.910695	0.412694	0.031615	-0.413068	0.910151						
04393														0.521782	-8.951968	3.124814	0.999123	-0.000442	-0.041869	0.017138	0.916675	0.399266	0.038204	-0.399634	0.915879						
04394														1.332142	-9.596711	3.572562	0.998695	0.000513	-0.051067	0.019310	0.921919	0.386900	0.047278	-0.387382	0.920706						
04395														1.534673	-10.570104	5.093903	0.997903	0.004043	-0.064603	0.020716	0.925605	0.377924	0.061325	-0.378470	0.923580						
04396														1.027233	-7.359456	5.177814	0.997266	0.028325	-0.068257	-0.000165	0.924480	0.381230	0.073900	-0.380176	0.921957						
04397														-0.657313	-14.193062	-2.787712	0.995914	0.034822	-0.083326	-0.003399	0.936471	0.350728	0.090246	-0.349012	0.932763						
04398														1.080741	-13.886972	2.965591	0.995252	0.039274	-0.089051	-0.005336	0.935609	0.352997	0.097181	-0.350846	0.931377						
04399														1.833770	-7.492685	0.207154	0.995915	0.036864	-0.082422	-0.006169	0.938506	0.345208	0.090080	-0.343289	0.934900						
04400														0.371977	-7.636836	-2.562607	0.995917	0.032910	-0.084058	-0.003194	0.943438	0.331532	0.090214	-0.329910	0.939692						
04401														-2.893268	-9.694688	-1.105129	0.995085	0.035297	-0.092521	-0.004635	0.949894	0.312537	0.098916	-0.310572	0.945389						
04402														-4.493976	-10.733646	-1.550216	0.994424	0.036695	-0.098869	-0.005966	0.955584	0.294658	0.105290	-0.292425	0.950475						
04403														-2.910641	-10.334044	-1.034923	0.993683	0.047917	-0.101478	-0.017407	0.959125	0.282445	0.110864	-0.278895	0.953901						
04404														-0.962902	-9.944388	-0.749927	0.992804	0.060146	-0.103551	-0.029992	0.962046	0.271234	0.115934	-0.266176	0.956927						
04405														-0.533962	-10.306614	-1.530687	0.992199	0.067724	-0.104664	-0.038554	0.965108	0.259000	0.118552	-0.252944	0.960190						
04406														0.200297	-10.048702	-1.324539	0.992035	0.068539	-0.105686	-0.040767	0.968549	0.245462	0.119186	-0.239198	0.963628						
04407														0.019134	-9.829177	-1.379455	0.992335	0.058833	-0.108674	-0.032848	0.973343	0.226989	0.119131	-0.221680	0.967815						
04408														-0.763086	-9.697580	-1.973399	0.992849	0.043655	-0.111108	-0.020053	0.978502	0.205261	0.117680	-0.201565	0.972380						
04409														-1.698996	-9.585398	-1.996199	0.993356	0.028434	-0.111514	-0.007689	0.983229	0.182216	0.114825	-0.180148	0.976915						
04410														-2.073959	-9.416605	-2.084858	0.993851	0.016330	-0.109519	0.001262	0.987330	0.158673	0.110723	-0.157836	0.981238						
04411														-1.733131	-9.391060	-1.943375	0.994303	0.010719	-0.106052	0.003778	0.990762	0.135561	0.106525	-0.135190	0.985077						
04412														-0.693225	-9.349725	-1.860394	0.994867	0.007147	-0.100943	0.004231	0.993693	0.112058	0.101107	-0.111910	0.988561						
04413														-0.367558	-9.514084	-1.621701	0.995598	0.000384	-0.093724	0.007789	0.996193	0.086822	0.093401	-0.087170	0.991805						
04414														-0.602581	-9.724614	-1.464511	0.996259	-0.011307	-0.085670	0.016466	0.998077	0.059751	0.084830	-0.060939	0.994530						
04415														-1.145778	-9.613471	-1.334082	0.996623	-0.021950	-0.079128	0.024719	0.999110	0.034180	0.078307	-0.036021	0.996278						
04416														-1.237347	-9.280858	-1.636381	0.996921	-0.032274	-0.071466	0.033157	0.999387	0.011197	0.071061	-0.013532	0.997380						
04417														-1.496003	-9.386667	-1.617654	0.997327	-0.040141	-0.061056	0.039651	0.999171	-0.009225	0.061376	0.006780	0.998092						
04418														-1.145606	-9.362816	-1.587417	0.997526	-0.049906	-0.049516	0.048528	0.998411	-0.028654	0.050867	0.026180	0.998362						
04419														-0.500175	-9.336540	-1.595923	0.997323	-0.062270	-0.038331	0.060438	0.997054	-0.047237	0.041159	0.044794	0.998148						
04420														-0.106775	-9.431133	-1.484761	0.996846	-0.074566	-0.027171	0.072741	0.995367	-0.062875	0.031734	0.060700	0.997651						
04421														-0.006925	-9.463625	-1.457991	0.995976	-0.088324	-0.015166	0.086916	0.993262	-0.076652	0.021834	0.075026	0.996943						
04422														-0.770656	-9.580007	-1.463309	0.994317	-0.106451	-0.001579	0.105892	0.990411	-0.088734	0.011010	0.088063	0.996054						
04423														-1.536935	-9.833075	-1.162761	0.992440	-0.122233	0.011044	0.122728	0.987704	-0.096839	0.000929	0.097462	0.995239						
04424														-2.456253	-11.620300	-0.894191	0.991116	-0.131345	0.020923	0.132762	0.986439	-0.096499	-0.007965	0.098419	0.995113						
04425														-1.883396	-13.556461	-1.003035	0.991473	-0.128339	0.022584	0.129765	0.988232	-0.080981	-0.011925	0.083221	0.996460						
04426														0.513365	-12.834098	-0.700091	0.993105	-0.116017	0.016794	0.116711	0.991958	-0.048973	-0.010977	0.050595	0.998659						
04427														2.915140	-11.641213	-0.589712	0.994680	-0.101802	0.015768	0.101985	0.994722	-0.011256	-0.014539	0.012804	0.999812						
04428														2.741350	-12.152418	-0.426126	0.994510	-0.102539	0.020885	0.101759	0.994175	0.035514	-0.024404	-0.033194	0.999151						
04429														2.211592	-12.092002	-1.274893	0.992800	-0.116679	0.027089	0.113991	0.989793	0.085531	-0.036792	-0.081827	0.995967						
04430														2.375614	-11.525127	-2.223166	0.991000	-0.131074	0.027175	0.126399	0.983103	0.132405	-0.044071	-0.127778	0.990823						
04431														1.419048	-11.630289	-3.628682	0.990104	-0.139323	0.016823	0.134327	0.975585	0.173754	-0.040621	-0.169775	0.984645						
04432														-0.721139	-11.341619	-5.143336	0.991796	-0.127784	0.003369	0.124161	0.969272	0.212357	-0.030401	-0.210196	0.977186						
04433														-0.451584	-10.502483	-3.368011	0.994721	-0.102576	-0.002735	0.100020	0.963289	0.249141	-0.022921	-0.248099	0.968463						
04434														0.775384	-10.300153	-1.087328	0.997245	-0.074052	-0.004238	0.072217	0.956336	0.283207	-0.016919	-0.282733	0.959049						
04435														1.893391	-10.053338	0.082885	0.999075	-0.042886	-0.003062	0.041618	0.946742	0.319292	-0.010794	-0.319124	0.947651						
04436														2.518905	-8.617160	-0.386418	0.999915	-0.013009	0.001132	0.011770	0.935419	0.353345	-0.005656	-0.353302	0.935492						
04437														3.539691	-7.840215	-0.764421	0.999976	0.004124	0.005542	-0.005928	0.924205	0.381852	-0.003547	-0.381876	0.924207						
04438														3.962449	-7.747203	-0.324790	0.999946	0.008290	0.006319	-0.010138	0.914350	0.404797	-0.002422	-0.404839	0.914385						
04439														3.206371	-7.468197	0.408917	0.999998	0.001824	0.000325	-0.001790	0.906091	0.423080	0.000477	-0.423080	0.906092						
04440														0.709206	-7.105109	1.338000	0.999922	-0.006382	-0.010745	0.010432	0.899726	0.436331	0.006883	-0.436409	0.899722						
04441														-2.064260	-7.263625	1.645471	0.999750	-0.006401	-0.021401	0.015266	0.895231	0.445341	0.016308	-0.445557	0.895105						
04442														-2.115983	-7.305801	1.154760	0.999677	0.002504	-0.025284	0.009195	0.892015	0.451912	0.023686	-0.451998	0.891704						
04443														-0.227699	-7.911446	0.874851	0.999628	0.014743	-0.022951	-0.002641	0.889728	0.456483	0.027150	-0.456253	0.889436						
04444														1.226099	-8.198588	2.098696	0.999559	0.022261	-0.019639	-0.010715	0.887515	0.460655	0.027685	-0.460242	0.887362						
04445														1.883574	-8.045493	3.621495	0.999485	0.027096	-0.017181	-0.016122	0.887132	0.461235	0.027739	-0.460720	0.887112						
04446														2.678858	-8.147309	4.161993	0.999404	0.029369	-0.018136	-0.017854	0.889510	0.456567	0.029541	-0.455971	0.889504						
04447														2.593634	-8.160217	3.417333	0.999261	0.028327	-0.025998	-0.013701	0.894116	0.447626	0.035925	-0.446939	0.893843						
04448														1.747674	-7.585156	3.767673	0.998895	0.026614	-0.038725	-0.007067	0.899858	0.436125	0.046454	-0.435369	0.899053						
04449														0.587220	-7.874673	4.705598	0.998237	0.028346	-0.052156	-0.003473	0.905005	0.425386	0.059260	-0.424454	0.903508						
04450														-2.055474	-7.594061	1.357178	0.996803	0.032185	-0.073132	0.000352	0.913507	0.406822	0.079900	-0.405547	0.910575						
04451														-4.775855	-18.156514	2.373243	0.994020	0.052425	-0.095788	-0.011397	0.922232	0.386470	0.108599	-0.383067	0.917314						
04452														1.893812	-12.606456	-0.242260	0.993871	0.071283	-0.084493	-0.032454	0.918796	0.393397	0.105675	-0.388244	0.915478						
04453														3.741449	-5.916815	-5.185903	0.994378	0.073436	-0.076280	-0.037879	0.919446	0.391388	0.098878	-0.386298	0.917059						
04454														0.841720	-7.844907	-0.790652	0.993411	0.079508	-0.082543	-0.043087	0.926482	0.373863	0.106200	-0.367843	0.923803						
04455														-3.694466	-12.173126	-2.921479	0.992606	0.077655	-0.093290	-0.040090	0.935183	0.351887	0.114569	-0.345545	0.931382						
04456														-3.045216	-11.823857	-1.462053	0.991897	0.080814	-0.098031	-0.043002	0.939623	0.339497	0.119549	-0.332531	0.935485						
04457														-1.513480	-10.179629	-1.035321	0.991675	0.079959	-0.100927	-0.042966	0.944387	0.326017	0.121382	-0.318967	0.939961						
04458														-1.595946	-9.815943	-1.578251	0.991883	0.073807	-0.103541	-0.038461	0.950299	0.308953	0.121198	-0.302463	0.945424						
04459														-1.905415	-9.991992	-1.536569	0.991935	0.069218	-0.106181	-0.036128	0.957370	0.286597	0.121492	-0.280449	0.952149						
04460														-1.404835	-10.133095	-1.454218	0.992021	0.063865	-0.108703	-0.033543	0.964827	0.260737	0.121531	-0.255010	0.959270						
04461														-1.162974	-9.516194	-1.454663	0.992278	0.057605	-0.109844	-0.030568	0.971869	0.233530	0.120207	-0.228369	0.966125						
04462														-1.104490	-9.224773	-1.319731	0.992599	0.052063	-0.109713	-0.028717	0.978444	0.204506	0.117995	-0.199842	0.972697						
04463														-1.091055	-9.342546	-1.718896	0.992963	0.047111	-0.108649	-0.027583	0.984239	0.174681	0.115166	-0.170455	0.978612						
04464														-0.601152	-9.440406	-1.417257	0.993463	0.043987	-0.105340	-0.028276	0.988845	0.146243	0.110598	-0.142308	0.983624						
04465														0.445744	-9.098975	-0.704405	0.994425	0.038736	-0.098075	-0.027045	0.992664	0.117843	0.101921	-0.114534	0.988177						
04466														-0.007046	-9.732213	-0.478372	0.995548	0.026332	-0.090507	-0.018281	0.995894	0.088661	0.092470	-0.086612	0.991941						
04467														-0.681385	-9.372212	-1.609903	0.996496	0.012702	-0.082674	-0.007612	0.998072	0.061595	0.083297	-0.060750	0.994671						
04468														-0.474804	-9.013549	-2.769311	0.997343	-0.006867	-0.072521	0.009423	0.999344	0.034958	0.072233	-0.035549	0.996754						
04469														-0.200932	-9.167988	-2.549711	0.997755	-0.023248	-0.062799	0.023792	0.999686	0.007924	0.062595	-0.009400	0.997995						
04470														-1.076011	-10.095967	-1.460301	0.998007	-0.036393	-0.051545	0.035641	0.999245	-0.015449	0.052068	0.013581	0.998551						
04471														-2.117405	-10.596856	-0.402560	0.997920	-0.050994	-0.039436	0.049756	0.998256	-0.031754	0.040987	0.029726	0.998717						
04472														-2.074350	-10.754161	-0.054532	0.997271	-0.068046	-0.028632	0.066766	0.996820	-0.043500	0.031501	0.041469	0.998643						
04473														-1.288131	-10.389645	0.480984	0.996319	-0.083538	-0.019220	0.082427	0.995201	-0.052731	0.023532	0.050953	0.998424						
04474														-1.116180	-10.436380	-0.022277	0.995244	-0.096805	-0.010840	0.096013	0.993657	-0.058536	0.016438	0.057217	0.998226						
04475														-1.367365	-10.339091	-0.087771	0.994142	-0.108035	-0.003254	0.107655	0.992429	-0.059114	0.009615	0.058417	0.998246						
04476														-1.639285	-10.106820	-0.533122	0.992998	-0.118104	0.002684	0.118074	0.991508	-0.054503	0.003776	0.054438	0.998510						
04477														-2.167729	-10.365670	-0.741014	0.992270	-0.124011	0.004659	0.124097	0.991363	-0.042427	0.000643	0.042677	0.999089						
04478														-2.058310	-12.352625	-0.757470	0.992787	-0.119894	-0.000565	0.119863	0.992620	-0.018399	0.002767	0.018199	0.999831						
04479														-0.202908	-12.939409	-1.142452	0.994238	-0.106573	-0.011542	0.106796	0.994064	0.020776	0.009260	-0.021889	0.999718						
04480														2.134614	-12.778954	-0.862976	0.995586	-0.091749	-0.019768	0.092908	0.993274	0.069101	0.013295	-0.070633	0.997414						
04481														3.069546	-11.707041	0.377437	0.996466	-0.081683	-0.019597	0.083490	0.988767	0.123974	0.009250	-0.125172	0.992092						
04482														2.188622	-12.331207	0.281356	0.997517	-0.067172	-0.021173	0.069925	0.980472	0.183809	0.008413	-0.184833	0.982734						
04483														2.910602	-12.008276	-2.200446	0.997717	-0.063672	-0.022515	0.067234	0.967905	0.242155	0.006374	-0.243115	0.969976						
04484														3.368902	-11.843641	-2.506796	0.997175	-0.071060	-0.024326	0.075070	0.953352	0.292378	0.002415	-0.293378	0.955993						
04485														1.563085	-10.912516	-2.506539	0.995948	-0.085037	-0.029263	0.089926	0.937968	0.334857	-0.001028	-0.336132	0.941814						
04486														-0.719557	-9.908034	-1.644726	0.994497	-0.099150	-0.033837	0.104622	0.923107	0.370038	-0.005454	-0.371541	0.928400						
04487														-0.631297	-9.639787	-1.164061	0.994570	-0.098467	-0.033683	0.103720	0.911452	0.398118	-0.008501	-0.399449	0.916716						
04488														-0.002852	-8.994228	-1.176684	0.995692	-0.086849	-0.032486	0.092432	0.901757	0.422244	-0.007377	-0.423428	0.905900						
04489														0.829215	-8.443503	-0.948720	0.996911	-0.072332	-0.030591	0.078399	0.893707	0.441749	-0.004613	-0.442783	0.896617						
04490														1.871897	-7.717267	-0.327015	0.997788	-0.059793	-0.029037	0.066454	0.887515	0.455961	-0.001492	-0.456882	0.889526						
04491														1.884825	-7.181877	0.282999	0.998359	-0.049322	-0.029086	0.057192	0.883544	0.464842	0.002772	-0.465743	0.884916						
04492														1.703114	-6.539940	0.605282	0.998973	-0.034883	-0.028915	0.044363	0.882777	0.467693	0.009211	-0.468496	0.883418						
04493														1.864804	-6.288202	1.315879	0.999358	-0.019066	-0.030318	0.030980	0.884952	0.464650	0.017971	-0.465292	0.884975						
04494														1.203594	-6.590460	2.404762	0.999331	-0.012160	-0.034482	0.026625	0.888376	0.458343	0.025059	-0.458955	0.888106						
04495														0.304899	-7.294872	3.001827	0.999211	-0.010782	-0.038220	0.026878	0.892110	0.451018	0.029234	-0.451690	0.891696						
04496														0.032595	-8.206827	3.206334	0.999116	-0.009573	-0.040932	0.026675	0.896941	0.441345	0.032488	-0.442046	0.896404						
04497														0.324413	-8.598288	3.453068	0.999020	-0.006513	-0.043782	0.024717	0.902617	0.429735	0.036720	-0.430396	0.901893						
04498														0.498035	-8.669256	3.995482	0.998787	-0.005454	-0.048939	0.025393	0.908559	0.416985	0.042190	-0.417722	0.907595						
04499														0.393498	-9.020239	4.560774	0.998440	-0.004244	-0.055675	0.026419	0.914335	0.404096	0.049191	-0.404936	0.913021						
04500														-0.191664	-10.145137	4.273756	0.998012	0.008084	-0.062504	0.017048	0.920142	0.391213	0.060675	-0.391501	0.918175						
04501														0.077213	-11.059989	4.962685	0.997254	0.024793	-0.069783	0.004533	0.920091	0.391678	0.073917	-0.390919	0.917452						
04502														-1.159228	-13.092423	0.270439	0.996242	0.039102	-0.077285	-0.007274	0.926914	0.375202	0.086308	-0.373230	0.923716						
04503														0.652298	-12.710297	1.771413	0.994815	0.065387	-0.077901	-0.030667	0.923146	0.383225	0.096971	-0.378849	0.920364						
04504														2.929667	-5.329504	-2.990649	0.994536	0.071404	-0.076153	-0.037459	0.925003	0.378108	0.097440	-0.373190	0.922624						
04505														0.431778	-7.582572	-2.246238	0.994426	0.064629	-0.083313	-0.030108	0.931279	0.363061	0.101052	-0.358529	0.928033						
04506														-3.682216	-11.844218	-1.708708	0.993510	0.065005	-0.093343	-0.028760	0.937505	0.346780	0.110052	-0.341845	0.933290						
04507														-2.771193	-11.267770	-2.012933	0.992370	0.073901	-0.098693	-0.036303	0.940113	0.338926	0.117830	-0.332757	0.935622						
04508														-0.492143	-9.745222	-0.877268	0.991111	0.087004	-0.100640	-0.048712	0.941299	0.334042	0.123795	-0.326170	0.937170						
04509														-0.557926	-10.139051	-0.871635	0.990280	0.093614	-0.102867	-0.055455	0.944004	0.325242	0.127554	-0.316376	0.940019						
04510														-0.672409	-9.970639	-0.763914	0.989701	0.096818	-0.105443	-0.059255	0.947601	0.313912	0.130310	-0.304431	0.943579						
04511														-1.098347	-9.850918	-0.926882	0.989605	0.093745	-0.109055	-0.057426	0.952846	0.297972	0.131846	-0.288612	0.948325						
04512														-1.461009	-10.112157	-1.010495	0.989809	0.087304	-0.112503	-0.052878	0.958870	0.278878	0.132223	-0.270087	0.953714						
04513														-1.893667	-9.965602	-0.796049	0.990208	0.078839	-0.115208	-0.047111	0.965572	0.255835	0.131411	-0.247902	0.959831						
04514														-2.096257	-9.532136	-1.223879	0.990726	0.070853	-0.115935	-0.042712	0.972419	0.229296	0.128983	-0.222218	0.966428						
04515														-1.370839	-9.399719	-1.216976	0.991273	0.066177	-0.114008	-0.042111	0.978513	0.201839	0.124915	-0.195276	0.972761						
04516														-0.203564	-9.069053	-1.177230	0.992213	0.059321	-0.109516	-0.039709	0.984074	0.173270	0.118051	-0.167572	0.978766						
04517														-0.118901	-9.257753	-1.092046	0.993494	0.047762	-0.103381	-0.032848	0.989402	0.141435	0.109041	-0.137119	0.984535						
04518														-0.680922	-9.596992	-1.155281	0.994934	0.031993	-0.095299	-0.021521	0.993814	0.108952	0.098195	-0.106349	0.989468						
04519														-1.062524	-9.167592	-1.250937	0.996371	0.012278	-0.084230	-0.005805	0.997039	0.076677	0.084922	-0.075910	0.993492						
04520														-1.416767	-8.982136	-1.437598	0.997450	-0.008844	-0.070818	0.012054	0.998912	0.045039	0.070342	-0.045778	0.996472						
04521														-1.610881	-9.455574	-1.434121	0.997991	-0.031394	-0.055024	0.032304	0.999354	0.015726	0.054494	-0.017472	0.998361						
04522														-1.651871	-9.741943	-1.379362	0.997856	-0.052847	-0.038596	0.052507	0.998573	-0.009778	0.039057	0.007730	0.999207						
04523														-1.341905	-9.403457	-1.443966	0.997174	-0.071672	-0.022523	0.070903	0.996929	-0.033246	0.024837	0.031555	0.999193						
04524														-1.147886	-9.661404	-0.785727	0.996221	-0.086658	-0.005839	0.086225	0.994842	-0.053421	0.010438	0.052715	0.998555						
04525														-1.030424	-10.426187	0.024345	0.995321	-0.096061	0.010420	0.096549	0.992994	-0.068132	-0.003803	0.068820	0.997622						
04526														-1.439373	-11.541055	0.132399	0.995230	-0.095412	0.020337	0.096701	0.992368	-0.076516	-0.012882	0.078117	0.996861						
04527														-1.420272	-11.680461	1.076736	0.995587	-0.091204	0.022084	0.092633	0.992800	-0.075946	-0.014999	0.077656	0.996867						
04528														-1.052077	-11.398807	1.258123	0.995311	-0.094627	0.020042	0.095695	0.993505	-0.061559	-0.014087	0.063189	0.997902						
04529														-0.025180	-11.401694	0.123251	0.994211	-0.106410	0.014902	0.106827	0.993802	-0.030762	-0.011536	0.032176	0.999416						
04530														1.438406	-12.885734	-0.989469	0.993074	-0.117355	0.005620	0.117273	0.993012	0.013180	-0.007127	-0.012429	0.999897						
04531														3.047963	-14.171518	-1.205086	0.992237	-0.124362	0.000367	0.124012	0.989663	0.072023	-0.009321	-0.071418	0.997403						
04532														3.793335	-13.786293	-0.998112	0.991828	-0.127562	-0.002475	0.126781	0.983213	0.131220	-0.014305	-0.130461	0.991350						
04533														2.704516	-12.239419	-1.405399	0.991187	-0.132064	-0.010362	0.131660	0.973466	0.187162	-0.014630	-0.186877	0.982274						
04534														1.339945	-11.708144	-4.599330	0.990774	-0.133977	-0.020430	0.135007	0.962532	0.235171	-0.011843	-0.235759	0.971739						
04535														-0.494556	-11.974729	-3.737449	0.991456	-0.128054	-0.024826	0.129872	0.951406	0.279212	-0.012134	-0.280051	0.959909						
04536														-0.924576	-11.094331	-0.886495	0.993590	-0.110800	-0.022403	0.112131	0.940914	0.319544	-0.014327	-0.320008	0.947307						
04537														0.983423	-9.659505	-0.959634	0.995809	-0.089962	-0.016461	0.089935	0.930572	0.354891	-0.016608	-0.354884	0.934763						
04538														2.380116	-8.660225	-1.562158	0.997421	-0.071017	-0.010390	0.069497	0.919463	0.386985	-0.017929	-0.386709	0.922028						
04539														2.910586	-8.080434	-1.450417	0.998367	-0.056749	-0.006565	0.054372	0.908665	0.413971	-0.017527	-0.413652	0.910266						
04540														2.865447	-7.503704	-0.601861	0.998637	-0.051763	-0.006648	0.049491	0.898882	0.435387	-0.016561	-0.435122	0.900219						
04541														2.189364	-7.109682	0.187521	0.998270	-0.057142	-0.013841	0.057251	0.891143	0.450096	-0.013385	-0.450110	0.892873						
04542														1.384345	-6.698775	0.184961	0.997603	-0.064679	-0.024601	0.068752	0.886092	0.458382	-0.007849	-0.458974	0.888415						
04543														-0.073264	-6.622323	0.468966	0.997253	-0.066039	-0.033549	0.074069	0.884482	0.460658	-0.000748	-0.461878	0.886943						
04544														-1.037676	-6.946449	1.024804	0.997933	-0.051830	-0.038002	0.063503	0.886210	0.458910	0.009893	-0.460375	0.887670						
04545														-0.676020	-7.293661	1.753061	0.998831	-0.029750	-0.038110	0.043845	0.889568	0.454693	0.020374	-0.455833	0.889832						
04546														0.119572	-8.044808	2.678589	0.999288	-0.009347	-0.036547	0.024809	0.892671	0.450026	0.028418	-0.450613	0.892267						
04547														0.579688	-8.778947	3.564608	0.999320	0.001552	-0.036844	0.015028	0.895235	0.445341	0.033675	-0.445591	0.894603						
04548														0.903505	-9.046265	4.004528	0.999220	0.003618	-0.039330	0.014073	0.897821	0.440135	0.036903	-0.440345	0.897070						
04549														0.843885	-8.718482	3.738879	0.999036	0.004952	-0.043617	0.014403	0.901631	0.432266	0.041467	-0.432477	0.900691						
04550														0.811903	-8.883856	3.233233	0.998726	0.010329	-0.049389	0.011565	0.905910	0.423311	0.049114	-0.423343	0.904637						
04551														0.597793	-9.267568	3.174624	0.998185	0.024369	-0.055071	0.000755	0.909334	0.416067	0.060217	-0.415353	0.907665						
04552														1.447041	-10.238181	3.744050	0.997358	0.042785	-0.058702	-0.014957	0.911768	0.410432	0.071083	-0.408470	0.910000						
04553														1.876261	-8.726149	2.144494	0.996795	0.049116	-0.063152	-0.019562	0.915037	0.402894	0.077575	-0.400368	0.913065						
04554														-1.358754	-14.456303	2.110205	0.995261	0.060641	-0.076016	-0.025933	0.918941	0.393540	0.093719	-0.389704	0.916159						
04555														1.906445	-8.555662	0.741127	0.993759	0.078457	-0.079298	-0.041252	0.918944	0.392226	0.103643	-0.386507	0.916445						
04556														1.639404	-6.739022	-3.266380	0.994337	0.067147	-0.082375	-0.031417	0.926193	0.375738	0.101525	-0.371022	0.923058						
04557														-1.248320	-10.411880	-0.439957	0.993830	0.061821	-0.092093	-0.025221	0.934475	0.355135	0.108013	-0.350621	0.930268						
04558														-4.212801	-12.101381	-2.263124	0.992982	0.064003	-0.099449	-0.027221	0.942015	0.334464	0.115089	-0.329409	0.937147						
04559														-2.124136	-10.045754	-1.687140	0.991688	0.078577	-0.101888	-0.041577	0.945080	0.324184	0.121766	-0.317253	0.940491						
04560														-0.898610	-9.653746	-0.327697	0.990436	0.090922	-0.103776	-0.054252	0.948207	0.312985	0.126859	-0.304362	0.944071						
04561														-0.810567	-10.497082	-0.963622	0.990023	0.092946	-0.105906	-0.057448	0.952539	0.298946	0.128665	-0.289879	0.948375						
04562														-0.876523	-10.130894	-1.428153	0.990229	0.087622	-0.108480	-0.053854	0.957870	0.282109	0.128629	-0.273510	0.953230						
04563														-0.743476	-10.064350	-1.410564	0.990761	0.076602	-0.111917	-0.045003	0.964148	0.261521	0.127937	-0.254068	0.958687						
04564														-0.567608	-9.427301	-1.717198	0.991606	0.059221	-0.114937	-0.030381	0.970769	0.238084	0.125677	-0.232593	0.964420						
04565														-1.433204	-9.497262	-1.625262	0.992386	0.041567	-0.115936	-0.016117	0.977060	0.212352	0.122104	-0.208867	0.970291						
04566														-1.610371	-9.560676	-1.468731	0.993128	0.028401	-0.113537	-0.006574	0.982114	0.188174	0.116851	-0.186134	0.975551						
04567														-1.244174	-9.569820	-1.184563	0.993770	0.021591	-0.109339	-0.003078	0.985998	0.166728	0.111408	-0.165352	0.979922						
04568														-0.858215	-9.636085	-0.925465	0.994348	0.018027	-0.104632	-0.002522	0.989213	0.146461	0.106143	-0.145369	0.983667						
04569														-1.161698	-9.534234	-0.567258	0.995031	0.010684	-0.098989	0.001938	0.991959	0.126544	0.099545	-0.126107	0.987010						
04570														-0.926141	-9.458412	-0.671962	0.995685	-0.002402	-0.092768	0.012320	0.994238	0.106487	0.091978	-0.107170	0.989977						
04571														-0.963631	-9.588938	-0.513336	0.996144	-0.017297	-0.086007	0.024720	0.995988	0.086010	0.084174	-0.087804	0.992575						
04572														-1.129067	-9.747737	-0.455643	0.996281	-0.035797	-0.078376	0.040966	0.997019	0.065376	0.075803	-0.068344	0.994778						
04573														-1.181497	-9.650990	-0.476657	0.995942	-0.057504	-0.069228	0.060731	0.997119	0.045445	0.066415	-0.049464	0.996565						
04574														-1.284634	-10.012505	-0.382133	0.995176	-0.078975	-0.058202	0.080729	0.996331	0.028419	0.055744	-0.032980	0.997900						
04575														-1.496137	-10.255185	0.187620	0.994417	-0.094029	-0.047894	0.094922	0.995344	0.016713	0.046100	-0.021166	0.998713						
04576														-1.657236	-10.392114	0.088252	0.993806	-0.104070	-0.038972	0.104511	0.994479	0.009432	0.037775	-0.013446	0.999196						
04577														-1.605928	-10.493520	-0.018080	0.993527	-0.108805	-0.032648	0.109138	0.993989	0.008620	0.031514	-0.012128	0.999430						
04578														-1.376011	-10.788435	0.084758	0.993447	-0.110671	-0.028551	0.111128	0.993694	0.014947	0.026717	-0.018022	0.999481						
04579														-1.211315	-11.778854	0.250427	0.993518	-0.110759	-0.025568	0.111528	0.993279	0.030949	0.021968	-0.033600	0.999194						
04580														-0.685583	-12.931826	0.422659	0.993683	-0.109575	-0.024246	0.110864	0.991995	0.060464	0.017427	-0.062770	0.997876						
04581														-0.042256	-13.969330	0.723883	0.994233	-0.104558	-0.023842	0.106493	0.988808	0.104489	0.012650	-0.106425	0.994240						
04582														0.890726	-14.030871	1.666097	0.995679	-0.089758	-0.023822	0.092419	0.982856	0.159539	0.009094	-0.161051	0.986904						
04583														2.938450	-12.964791	1.998860	0.996305	-0.083556	-0.019859	0.085877	0.972051	0.218501	0.001047	-0.219399	0.975635						
04584														4.588067	-11.132511	-0.298133	0.995008	-0.098428	-0.016456	0.099181	0.957113	0.272211	-0.011043	-0.272484	0.962097						
04585														4.124175	-10.123637	-3.032376	0.991429	-0.127826	-0.027001	0.129833	0.940965	0.312615	-0.014554	-0.313441	0.949496						
04586														-0.894432	-10.097856	-4.852454	0.987281	-0.152330	-0.045509	0.158702	0.927283	0.339057	-0.009449	-0.341967	0.939664						
04587														-3.908071	-10.430752	-3.573216	0.987826	-0.146221	-0.053098	0.155499	0.918288	0.364097	-0.004480	-0.367921	0.929846						
04588														-2.424201	-9.640496	-0.682519	0.991964	-0.117054	-0.048019	0.126502	0.910949	0.392643	-0.002218	-0.395562	0.918437						
04589														0.916889	-8.790749	0.624022	0.995630	-0.085006	-0.038667	0.093383	0.902334	0.420801	-0.000880	-0.422573	0.906328						
04590														3.136324	-7.192069	0.078857	0.997917	-0.057379	-0.029485	0.064505	0.894192	0.443012	0.000946	-0.443991	0.896031						
04591														3.127782	-6.409314	0.090166	0.998964	-0.038603	-0.024081	0.045339	0.888777	0.456093	0.003796	-0.456712	0.889606						
04592														2.449370	-6.871886	0.240563	0.999422	-0.025617	-0.022348	0.033050	0.886145	0.462229	0.007963	-0.462700	0.886479						
04593														2.886733	-6.942807	0.216074	0.999537	-0.018966	-0.023807	0.027853	0.885345	0.464100	0.012275	-0.464548	0.885463						
04594														2.872799	-6.556602	0.551033	0.999233	-0.025058	-0.030092	0.036126	0.886435	0.461440	0.015112	-0.462173	0.886661						
04595														1.272628	-6.753037	1.274980	0.998317	-0.041501	-0.040516	0.055382	0.889588	0.453393	0.017226	-0.454874	0.890389						
04596														-1.513401	-7.832046	2.429840	0.997269	-0.054340	-0.050021	0.070880	0.894508	0.441397	0.020759	-0.443737	0.895917						
04597														-3.389546	-9.034880	3.122428	0.997850	-0.041241	-0.050935	0.059130	0.901689	0.428323	0.028263	-0.430414	0.902189						
04598														-1.400941	-9.576073	3.565558	0.998741	-0.013754	-0.048234	0.032607	0.908761	0.416041	0.038111	-0.417090	0.908066						
04599														0.815182	-10.089972	4.186871	0.998606	-0.004543	-0.052590	0.025571	0.913220	0.406663	0.046178	-0.407441	0.912063						
04600														1.725488	-9.689613	4.901430	0.997916	-0.013341	-0.063125	0.037509	0.916016	0.399383	0.052495	-0.400919	0.914608						
04601														3.213795	-5.990594	3.511228	0.997209	-0.026992	-0.069616	0.052601	0.915687	0.398434	0.052992	-0.400984	0.914551						
04602														1.349383	-4.587290	-2.342785	0.996237	-0.031982	-0.080554	0.059207	0.929887	0.363050	0.063295	-0.366453	0.928281						
04603														-4.621493	-21.753067	4.159289	0.994930	-0.001389	-0.100564	0.034938	0.942406	0.332641	0.094310	-0.334467	0.937676						
04604														0.861533	-15.131587	2.973659	0.994516	0.029328	-0.100388	0.007114	0.938684	0.344705	0.104342	-0.343529	0.933328						
04605														3.069213	-4.826711	-4.958270	0.995851	0.014677	-0.089811	0.016679	0.940754	0.338679	0.089461	-0.338771	0.936606						
04606														1.695501	-5.388288	-3.065716	0.995402	0.010638	-0.095197	0.020556	0.946941	0.320748	0.093558	-0.321230	0.942368						
04607														-4.249859	-11.546918	-1.709418	0.994354	0.010969	-0.105543	0.020681	0.955536	0.294148	0.104077	-0.294670	0.949915						
04608														-4.203494	-12.282955	-3.642379	0.994117	0.010678	-0.107786	0.019988	0.959953	0.279449	0.106454	-0.279959	0.954091						
04609														-0.251261	-10.019681	-0.956732	0.994060	0.022727	-0.106433	0.007144	0.962218	0.272185	0.108598	-0.271329	0.956341						
04610														-0.156715	-9.555946	-1.522220	0.993975	0.024889	-0.106744	0.003516	0.966134	0.258016	0.109551	-0.256836	0.960226						
04611														-0.984175	-9.906128	-1.650815	0.993969	0.017128	-0.108315	0.009341	0.970914	0.239245	0.109262	-0.238814	0.964899						
04612														-1.047211	-9.534410	-1.760385	0.993789	0.005979	-0.111124	0.018308	0.976165	0.216258	0.109769	-0.216950	0.969992						
04613														-1.092794	-9.160572	-1.884497	0.993674	-0.010418	-0.111820	0.031760	0.981110	0.190824	0.107720	-0.193168	0.975235						
04614														-1.430618	-9.175643	-1.957708	0.993672	-0.027608	-0.108878	0.045283	0.985524	0.163378	0.102791	-0.167274	0.980537						
04615														-1.984271	-9.398968	-1.999104	0.994057	-0.038550	-0.101810	0.052137	0.989560	0.134361	0.095567	-0.138870	0.985689						
04616														-1.824397	-9.362693	-1.981538	0.994712	-0.042577	-0.093458	0.052439	0.993010	0.105741	0.088303	-0.110083	0.989992						
04617														-1.281985	-8.930453	-1.586458	0.995431	-0.043002	-0.085247	0.049648	0.995759	0.077450	0.081555	-0.081329	0.993345						
04618														-0.734946	-8.901749	-1.645574	0.996032	-0.047791	-0.075080	0.051464	0.997532	0.047766	0.072612	-0.051440	0.996033						
04619														-0.444693	-8.903009	-2.132632	0.996213	-0.061747	-0.061206	0.062894	0.997876	0.016994	0.060027	-0.020779	0.997980						
04620														-0.163340	-9.062132	-2.335087	0.995759	-0.081226	-0.043206	0.080680	0.996638	-0.014235	0.044217	0.010689	0.998965						
04621														-0.482678	-9.239100	-1.551505	0.994967	-0.097317	-0.023874	0.096242	0.994444	-0.042652	0.027892	0.040140	0.998805						
04622														-1.611232	-11.080721	-1.931599	0.994735	-0.102292	-0.006152	0.101648	0.992533	-0.067421	0.013002	0.066441	0.997706						
04623														-1.870121	-12.386683	0.380643	0.995765	-0.091929	0.001393	0.091737	0.992445	-0.081465	0.006106	0.081248	0.996675						
04624														-0.900633	-11.433962	2.544591	0.996265	-0.086287	0.003353	0.086247	0.992379	-0.088006	0.004267	0.087966	0.996114						
04625														-0.483249	-10.373281	0.511747	0.994753	-0.101792	0.010246	0.102302	0.990632	-0.090460	-0.000942	0.091033	0.995847						
04626														-0.399261	-10.650623	-1.321434	0.992306	-0.122493	0.018014	0.123611	0.988413	-0.088085	-0.007016	0.089634	0.995950						
04627														-0.434771	-11.681730	-1.107657	0.990794	-0.134008	0.019198	0.135083	0.987981	-0.075135	-0.008899	0.077037	0.996989						
04628														-0.432521	-11.973972	-0.566059	0.990069	-0.139944	0.013365	0.140443	0.988833	-0.049848	-0.006240	0.051230	0.998667						
04629														0.064398	-12.036406	0.178969	0.989765	-0.142678	0.002737	0.142702	0.989679	-0.013080	-0.000843	0.013336	0.999911						
04630														0.565835	-13.598428	0.176560	0.989777	-0.142400	-0.007964	0.142595	0.989140	0.035628	0.002804	-0.036400	0.999333						
04631														1.470211	-12.335959	-0.551114	0.989545	-0.143697	-0.012333	0.144208	0.984485	0.099963	-0.002223	-0.100697	0.994915						
04632														1.753985	-12.511241	-2.967109	0.990941	-0.133371	-0.015771	0.134192	0.978562	0.156232	-0.005404	-0.156933	0.987594						
04633														1.807901	-12.115687	-4.505996	0.994341	-0.103648	-0.023295	0.106226	0.972753	0.206077	0.001301	-0.207385	0.978259						
04634														1.365188	-10.995093	-5.033730	0.996589	-0.077373	-0.028689	0.082105	0.964557	0.250777	0.008269	-0.252277	0.967620						
04635														0.841151	-10.694426	-2.467843	0.998024	-0.056564	-0.027371	0.062099	0.954434	0.291889	0.009614	-0.293012	0.956061						
04636														1.721824	-9.643475	-0.951106	0.999097	-0.036385	-0.021944	0.041555	0.944463	0.325981	0.008865	-0.326599	0.945122						
04637														2.715966	-9.059900	-1.507337	0.999560	-0.023771	-0.017753	0.028532	0.934209	0.355583	0.008132	-0.355933	0.934476						
04638														2.745376	-8.344190	-1.546626	0.999583	-0.022651	-0.017922	0.027766	0.924487	0.380202	0.007956	-0.380541	0.924730						
04639														2.450274	-7.399626	-1.258145	0.999373	-0.028368	-0.021208	0.034465	0.916918	0.397584	0.008168	-0.398065	0.917321						
04640														1.755771	-7.077366	-0.721687	0.999011	-0.035518	-0.026755	0.043364	0.911355	0.409330	0.009845	-0.410085	0.911994						
04641														1.074685	-6.803697	-0.260339	0.998474	-0.043475	-0.034054	0.053709	0.907941	0.415642	0.012849	-0.416837	0.908890						
04642														-0.258192	-6.849136	0.094462	0.998145	-0.045319	-0.040646	0.058130	0.907834	0.415281	0.018080	-0.416874	0.908785						
04643														-1.236941	-7.255892	0.518327	0.998456	-0.034848	-0.043261	0.049617	0.909655	0.412391	0.024982	-0.413900	0.909979						
04644														-1.057220	-7.866434	1.768157	0.998991	-0.016784	-0.041651	0.032431	0.911206	0.410671	0.031060	-0.411608	0.910832						
04645														-0.007449	-8.360413	2.881070	0.999252	0.004391	-0.038413	0.011805	0.911432	0.411282	0.036816	-0.411428	0.910698						
04646														1.250187	-8.140967	3.943417	0.999250	0.012765	-0.036557	0.003455	0.910943	0.412517	0.038567	-0.412334	0.910216						
04647														2.036965	-7.804294	3.877410	0.999328	0.006361	-0.036109	0.009002	0.912122	0.409820	0.035543	-0.409870	0.911451						
04648														2.250348	-8.020811	2.668135	0.999224	-0.010181	-0.038044	0.024660	0.914938	0.402840	0.030706	-0.403466	0.914479						
04649														2.464628	-8.515787	1.736427	0.998780	-0.023914	-0.043205	0.038978	0.918961	0.392416	0.030320	-0.393622	0.918772						
04650														1.217880	-10.573157	1.508612	0.998670	-0.013886	-0.049651	0.031945	0.922564	0.384519	0.040466	-0.385594	0.921781						
04651														-2.846618	-12.386779	0.867695	0.997817	-0.002851	-0.065974	0.026882	0.930072	0.366393	0.060316	-0.367367	0.928118						
04652														-2.582145	-16.804436	4.065944	0.996694	0.021541	-0.078343	0.008072	0.933193	0.359284	0.080849	-0.358729	0.929934						
04653														1.605671	-7.013681	-0.763847	0.996895	0.028343	-0.073469	-0.000843	0.936768	0.349950	0.078742	-0.348801	0.933883						
04654														-0.480602	-5.716334	-4.732617	0.996617	0.016512	-0.080513	0.010739	0.945052	0.326744	0.081484	-0.326503	0.941677						
04655														-3.324926	-9.871636	-1.489106	0.994928	0.024878	-0.097465	0.005492	0.954056	0.299579	0.100440	-0.298595	0.949080						
04656														-2.402226	-12.634249	-3.482743	0.993594	0.038925	-0.106089	-0.007814	0.960221	0.279131	0.112734	-0.276514	0.954375						
04657														4.113156	-10.549969	-0.980636	0.993407	0.053160	-0.101566	-0.023518	0.961641	0.273300	0.112198	-0.269110	0.956552						
04658														4.929514	-9.604490	0.268627	0.994028	0.045054	-0.099393	-0.017738	0.965392	0.260201	0.107677	-0.256884	0.960425						
04659														0.238852	-9.742615	-1.618746	0.994612	0.019813	-0.101759	0.005381	0.970378	0.241530	0.103530	-0.240776	0.965043						
04660														-2.562304	-9.390296	-2.542223	0.994063	-0.017124	-0.107446	0.040421	0.974983	0.218573	0.101015	-0.221618	0.969887						
04661														-2.989207	-9.707957	-2.245191	0.992016	-0.058485	-0.111732	0.079387	0.977999	0.192913	0.097991	-0.200243	0.974834						
04662														-3.094169	-9.685328	-2.174395	0.989073	-0.097878	-0.110244	0.115285	0.979603	0.164580	0.091886	-0.175491	0.980184						
04663														-3.232032	-9.569457	-2.203519	0.986996	-0.123594	-0.102776	0.137064	0.981123	0.136423	0.083975	-0.148736	0.985305						
04664														-2.640666	-9.280168	-1.816018	0.986805	-0.133027	-0.092302	0.142855	0.983656	0.109604	0.076213	-0.121344	0.989680						
04665														-1.884526	-9.199259	-1.724434	0.988247	-0.127953	-0.083639	0.134847	0.987406	0.082744	0.071999	-0.093050	0.993055						
04666														-1.260174	-8.913337	-1.556909	0.989898	-0.119928	-0.075631	0.124275	0.990686	0.055649	0.068252	-0.064485	0.995582						
04667														-0.674653	-9.102924	-1.479586	0.990916	-0.116921	-0.066438	0.118931	0.992532	0.027135	0.062769	-0.034790	0.997422						
04668														-0.201416	-8.948266	-1.888722	0.990887	-0.123288	-0.054246	0.123376	0.992359	-0.001748	0.054047	-0.004960	0.998526						
04669														0.116026	-8.497306	-1.753917	0.989551	-0.138921	-0.038585	0.137777	0.989982	-0.030882	0.042489	0.025243	0.998778						
04670														0.265607	-8.822774	-1.919865	0.986899	-0.160364	-0.017722	0.159024	0.985391	-0.060955	0.027239	0.057338	0.997983						
04671														-0.796802	-11.531856	-2.325898	0.985944	-0.167064	-0.001981	0.166206	0.981949	-0.090282	0.017028	0.088684	0.995914						
04672														-1.499647	-12.943612	1.715991	0.988134	-0.153596	0.000553	0.152777	0.982477	-0.106764	0.015855	0.105582	0.994284						
04673														-1.126028	-11.316805	3.664009	0.989063	-0.147492	0.000421	0.146612	0.982844	-0.111903	0.016092	0.110741	0.993719						
04674														-0.947243	-10.531475	0.955080	0.986514	-0.163493	0.007732	0.163319	0.980151	-0.112388	0.010796	0.112135	0.993634						
04675														-0.986010	-11.186172	-1.272846	0.982549	-0.185221	0.017036	0.185972	0.976589	-0.108116	0.003388	0.109398	0.993992						
04676														-0.868445	-11.947790	-1.349227	0.979832	-0.198994	0.018208	0.199825	0.975673	-0.090180	0.000181	0.091999	0.995759						
04677														-0.849506	-12.484718	-0.615666	0.979370	-0.201909	0.008261	0.202046	0.977681	-0.057603	0.003554	0.058083	0.998305						
04678														0.194901	-13.386709	0.186318	0.981477	-0.191457	-0.006922	0.191370	0.981450	-0.011567	0.009009	0.010028	0.999909						
04679														1.034505	-13.633087	-0.009178	0.983864	-0.178490	-0.012369	0.178901	0.982378	0.054114	0.002492	-0.055454	0.998458						
04680														1.738462	-12.778767	-2.330527	0.986547	-0.162874	-0.014040	0.163397	0.979705	0.116104	-0.005155	-0.116836	0.993138						
04681														2.555471	-12.150419	-5.620892	0.991260	-0.129823	-0.023455	0.131924	0.975962	0.173476	0.000371	-0.175054	0.984559						
04682														1.714275	-11.884469	-5.879405	0.994562	-0.099785	-0.029828	0.103942	0.969005	0.224110	0.006541	-0.225992	0.974107						
04683														0.591709	-11.388409	-2.845880	0.996344	-0.079209	-0.031996	0.084926	0.958923	0.270655	0.009244	-0.272383	0.962145						
04684														1.284314	-10.654324	-1.538005	0.997969	-0.056576	-0.029280	0.062882	0.948437	0.310665	0.010194	-0.311875	0.950068						
04685														3.104522	-8.811194	-1.881067	0.998825	-0.041164	-0.025580	0.047477	0.937089	0.345847	0.009734	-0.346655	0.937942						
04686														2.474673	-8.070066	-2.249015	0.998842	-0.041052	-0.025080	0.047471	0.925618	0.375470	0.007801	-0.376225	0.926495						
04687														1.661992	-7.703502	-1.522815	0.998434	-0.048597	-0.027703	0.055619	0.915292	0.398932	0.005969	-0.399849	0.916562						
04688														0.755674	-7.062168	-1.048227	0.998265	-0.050052	-0.031005	0.058432	0.906846	0.417393	0.007226	-0.418480	0.908197						
04689														1.090015	-6.109894	-0.746216	0.998490	-0.043452	-0.033621	0.053730	0.900076	0.432408	0.011473	-0.433561	0.901051						
04690														1.344888	-5.689933	-0.118596	0.998550	-0.037883	-0.038259	0.050929	0.895114	0.442919	0.017467	-0.444225	0.895745						
04691														0.524965	-5.981637	0.834758	0.998209	-0.039497	-0.044941	0.055489	0.892069	0.448479	0.022377	-0.450169	0.892663						
04692														-1.044362	-7.002650	2.145071	0.997939	-0.039907	-0.050252	0.058305	0.890960	0.450323	0.026801	-0.452325	0.891451						
04693														-1.688965	-7.771508	3.760679	0.998397	-0.025785	-0.050386	0.045744	0.891844	0.450025	0.033332	-0.451608	0.891593						
04694														-0.067364	-8.698925	4.965343	0.998736	-0.005716	-0.049932	0.027324	0.895607	0.444005	0.042182	-0.444809	0.894632						
04695														1.067534	-9.238931	5.821746	0.998148	-0.009904	-0.060020	0.035220	0.898559	0.437436	0.049600	-0.438740	0.897244						
04696														-0.505489	-11.152238	4.559438	0.996946	-0.018092	-0.075969	0.049305	0.900214	0.432648	0.060561	-0.435072	0.898357						
04697														-0.913793	-9.859820	6.410847	0.996097	-0.007713	-0.087931	0.046120	0.894855	0.443968	0.075261	-0.446291	0.891718						
04698														-0.224685	-5.867220	-2.878679	0.995211	-0.006207	-0.097549	0.047188	0.904496	0.423864	0.085602	-0.426437	0.900458						
04699														-2.245772	-16.202888	2.291500	0.994741	0.023393	-0.099718	0.019269	0.913448	0.406498	0.100597	-0.406282	0.908194						
04700														1.963169	-12.159244	2.972928	0.994003	0.063873	-0.088758	-0.021791	0.911099	0.411612	0.107158	-0.407209	0.907027						
04701														5.931327	-6.016184	-2.890737	0.994256	0.075197	-0.076165	-0.037756	0.912281	0.407821	0.100150	-0.402603	0.909880						
04702														2.661171	-7.155392	-0.746761	0.993864	0.073982	-0.082228	-0.035796	0.918520	0.393750	0.104659	-0.388391	0.915532						
04703														-3.331512	-11.002500	-1.214233	0.993591	0.058605	-0.096661	-0.018591	0.928185	0.371656	0.111500	-0.367477	0.923325						
04704														-4.690761	-12.023982	-2.147593	0.993269	0.049197	-0.104864	-0.008665	0.934343	0.356271	0.115506	-0.352964	0.928480						
04705														-2.629951	-10.071694	-1.122840	0.992839	0.052569	-0.107275	-0.012517	0.938810	0.344208	0.118806	-0.340400	0.932745						
04706														-1.890934	-9.853854	-1.297920	0.992189	0.062570	-0.107921	-0.023511	0.943405	0.330808	0.122511	-0.325687	0.937507						
04707														-1.468653	-10.133953	-1.426614	0.991172	0.075751	-0.108809	-0.037631	0.947688	0.316971	0.127128	-0.310079	0.942173						
04708														-0.436850	-9.896221	-1.232421	0.990649	0.080279	-0.110316	-0.044043	0.953448	0.298324	0.129130	-0.290675	0.948068						
04709														0.058231	-9.825015	-1.683371	0.990841	0.072483	-0.113934	-0.039089	0.961561	0.271793	0.129255	-0.264850	0.955587						
04710														-0.346028	-9.985134	-2.135102	0.991492	0.054774	-0.118086	-0.025244	0.970846	0.238372	0.127700	-0.233363	0.963968						
04711														-0.549463	-9.549154	-2.198055	0.992366	0.034440	-0.118418	-0.009764	0.979141	0.202948	0.122937	-0.200243	0.972003						
04712														-1.019414	-9.185556	-1.587392	0.993334	0.018062	-0.113850	0.001197	0.985978	0.166870	0.115268	-0.165894	0.979384						
04713														-1.094804	-8.777820	-1.557386	0.994487	0.004028	-0.104780	0.009744	0.991389	0.130589	0.104403	-0.130890	0.985884						
04714														-1.690909	-9.159628	-1.359929	0.995515	-0.005525	-0.094441	0.014540	0.995367	0.095041	0.093478	-0.095988	0.990983						
04715														-1.718561	-9.171993	-1.609244	0.996363	-0.016136	-0.083666	0.021367	0.997847	0.062012	0.082485	-0.063575	0.994562						
04716														-1.216458	-9.217906	-1.721536	0.996925	-0.028975	-0.072803	0.031402	0.998981	0.032423	0.071789	-0.034609	0.996819						
04717														-0.656535	-8.894941	-1.781304	0.996993	-0.048151	-0.060714	0.048431	0.998822	0.003141	0.060491	-0.006072	0.998150						
04718														-0.215090	-9.635995	-1.328322	0.996354	-0.072610	-0.044800	0.071541	0.997124	-0.025027	0.046488	0.021731	0.998682						
04719														-0.833586	-11.200027	-0.742743	0.995062	-0.095662	-0.026470	0.094352	0.994429	-0.046993	0.030818	0.044263	0.998544						
04720														-1.344292	-12.309061	0.067870	0.994510	-0.103428	-0.015902	0.102297	0.992921	-0.060354	0.022032	0.058395	0.998050						
04721														-1.588945	-12.261629	2.284395	0.994800	-0.100663	-0.015473	0.099429	0.992824	-0.066435	0.022050	0.064551	0.997671						
04722														-1.556126	-9.949233	1.293286	0.993057	-0.117108	-0.011097	0.116061	0.990790	-0.069745	0.019163	0.067973	0.997503						
04723														-1.801863	-9.875396	-1.101180	0.990123	-0.140183	-0.002064	0.139716	0.987826	-0.068412	0.011629	0.067448	0.997655						
04724														-1.735207	-10.333570	-0.508590	0.989062	-0.147495	0.000937	0.147302	0.987401	-0.057805	0.007601	0.057311	0.998327						
04725														-1.463836	-10.617921	-0.032948	0.989575	-0.143958	-0.004062	0.143734	0.989010	-0.034652	0.009006	0.033707	0.999391						
04726														-0.658527	-10.131356	-0.106960	0.990449	-0.137010	-0.015453	0.137056	0.990561	0.001930	0.015042	-0.004029	0.999879						
04727														0.625833	-11.481929	-1.220281	0.990776	-0.132585	-0.028015	0.133916	0.989592	0.052672	0.020740	-0.055938	0.998219						
04728														2.669475	-11.814770	-1.824489	0.991142	-0.129205	-0.030708	0.131885	0.984768	0.113308	0.015600	-0.116354	0.993085						
04729														3.274415	-12.308590	-0.036859	0.992287	-0.120183	-0.030381	0.123651	0.976980	0.173839	0.008789	-0.176255	0.984305						
04730														2.559808	-13.012926	0.511080	0.992635	-0.116476	-0.033313	0.121021	0.965889	0.228938	0.005511	-0.231283	0.972871						
04731														2.385769	-13.520808	-2.113279	0.991760	-0.121965	-0.039194	0.128068	0.951546	0.279568	0.003197	-0.282284	0.959325						
04732														2.089980	-12.708210	-4.466168	0.990722	-0.127535	-0.046956	0.135886	0.935269	0.326814	0.002236	-0.330162	0.943921						
04733														-0.527970	-11.225075	-2.487775	0.989934	-0.131332	-0.052754	0.141530	0.920136	0.365128	0.000588	-0.368919	0.929461						
04734														-1.038497	-11.179769	-0.721516	0.990583	-0.126406	-0.052606	0.136898	0.908401	0.395052	-0.002150	-0.398534	0.917151						
04735														0.668632	-9.942341	0.043840	0.993108	-0.107176	-0.047438	0.117176	0.898919	0.422155	-0.002602	-0.424804	0.905282						
04736														2.122834	-8.215234	-0.379546	0.995006	-0.089841	-0.043498	0.099810	0.890323	0.444255	-0.001185	-0.446378	0.894844						
04737														2.190411	-7.209285	-0.305616	0.995716	-0.082088	-0.042563	0.092466	0.883945	0.458358	-0.000003	-0.460330	0.887748						
04738														1.791831	-7.070128	0.196773	0.995828	-0.080742	-0.042514	0.091250	0.880302	0.465555	-0.000165	-0.467493	0.883997						
04739														1.462746	-7.068195	0.440757	0.995810	-0.080439	-0.043494	0.091443	0.878617	0.468690	0.000513	-0.470704	0.882291						
04740														1.150179	-6.320354	0.632822	0.995882	-0.078500	-0.045356	0.090604	0.879420	0.467345	0.003201	-0.469529	0.882911						
04741														0.324140	-6.395265	1.321380	0.996071	-0.074725	-0.047516	0.088225	0.883590	0.459876	0.007620	-0.462261	0.886711						
04742														-0.599718	-7.155310	2.742336	0.996187	-0.071337	-0.050218	0.086342	0.888613	0.450457	0.012490	-0.453076	0.891385						
04743														-1.329143	-7.698189	4.267397	0.996665	-0.062668	-0.052267	0.079377	0.893102	0.442795	0.018931	-0.445467	0.895098						
04744														-0.590501	-8.156265	5.055122	0.997219	-0.049047	-0.056111	0.068639	0.897735	0.435156	0.029030	-0.437797	0.898605						
04745														0.800563	-7.710141	4.352495	0.997057	-0.044277	-0.062580	0.067066	0.899234	0.432297	0.037133	-0.435222	0.899557						
04746														1.636837	-5.566846	1.795995	0.996465	-0.050656	-0.067019	0.074348	0.903184	0.422766	0.039115	-0.426254	0.903757						
04747														-0.273641	-7.488557	0.455265	0.996647	-0.040698	-0.070979	0.065982	0.912768	0.403114	0.048381	-0.406446	0.912393						
04748														-3.517522	-19.776638	2.722043	0.996252	-0.003663	-0.086421	0.036733	0.922457	0.384348	0.078312	-0.386082	0.919134						
04749														1.985773	-14.495336	2.262369	0.995922	0.020220	-0.087922	0.014906	0.924283	0.381416	0.088977	-0.381171	0.920213						
04750														3.442576	-6.136794	-3.314524	0.996583	-0.000422	-0.082595	0.031151	0.928062	0.371121	0.076497	-0.372426	0.924904						
04751														1.616175	-6.637431	-0.694854	0.996272	-0.001494	-0.086254	0.031689	0.936284	0.349812	0.080236	-0.351241	0.932841						
04752														-1.863951	-11.486835	-2.031209	0.995716	-0.005309	-0.092313	0.035048	0.945522	0.323666	0.085565	-0.325515	0.941657						
04753														-1.189963	-11.206531	-2.034063	0.995576	-0.011254	-0.093281	0.039338	0.951522	0.305055	0.085326	-0.307375	0.947755						
04754														-0.848520	-10.057653	-0.504990	0.995259	-0.020088	-0.095165	0.046650	0.957142	0.285838	0.085344	-0.288923	0.953541						
04755														-2.355192	-10.200595	-1.421002	0.994790	-0.025098	-0.098811	0.050562	0.963085	0.264408	0.088528	-0.268027	0.959335						
04756														-2.863305	-9.848854	-1.982508	0.994530	-0.026039	-0.101155	0.050020	0.968893	0.242373	0.091697	-0.246107	0.964895						
04757														-2.215531	-9.652049	-1.963737	0.994412	-0.025807	-0.102362	0.047657	0.974970	0.217168	0.094196	-0.220833	0.970752						
04758														-1.396450	-9.664766	-2.208764	0.994278	-0.027456	-0.103233	0.046690	0.980902	0.188814	0.096078	-0.192553	0.976572						
04759														-0.483920	-9.285779	-2.210454	0.994506	-0.028751	-0.100656	0.044721	0.986071	0.160199	0.094648	-0.163820	0.981939						
04760														-0.040543	-8.839664	-1.898539	0.995032	-0.033565	-0.093726	0.045576	0.990584	0.129101	0.088511	-0.132731	0.987192						
04761														-0.759265	-8.693327	-2.217648	0.995482	-0.041852	-0.085227	0.049994	0.994148	0.095759	0.080721	-0.099587	0.991749						
04762														-0.970637	-8.502433	-2.886406	0.995757	-0.051808	-0.076055	0.056605	0.996449	0.062335	0.072555	-0.066376	0.995153						
04763														-0.326874	-8.116240	-3.334227	0.995910	-0.063196	-0.064573	0.065196	0.997441	0.029335	0.062554	-0.033424	0.997482						
04764														-0.025087	-8.260636	-3.478372	0.995670	-0.078623	-0.049593	0.078447	0.996903	-0.005497	0.049871	0.001583	0.998754						
04765														-0.108931	-9.622050	-2.570337	0.995021	-0.094360	-0.032083	0.093010	0.994810	-0.041246	0.035809	0.038056	0.998634						
04766														-0.346068	-13.846286	-0.179070	0.995516	-0.092070	-0.021690	0.090343	0.993421	-0.070373	0.028026	0.068098	0.997285						
04767														-0.130441	-13.933896	4.419767	0.996160	-0.084730	-0.022039	0.082858	0.993718	-0.075233	0.028275	0.073118	0.996922						
04768														-0.053446	-10.758924	2.343110	0.994210	-0.106009	-0.017566	0.104466	0.991843	-0.073039	0.025165	0.070781	0.997174						
04769														-1.139378	-8.725076	-2.986362	0.988520	-0.151067	-0.002638	0.150369	0.985356	-0.080388	0.014744	0.079068	0.996760						
04770														-2.113132	-8.487808	-4.371290	0.983050	-0.182924	0.012335	0.183284	0.978862	-0.090754	0.004527	0.091477	0.995797						
04771														-1.891915	-8.583609	-3.185064	0.979153	-0.201561	0.025134	0.203072	0.974140	-0.099059	-0.004518	0.102098	0.994764						
04772														-1.511772	-9.391530	-1.733337	0.976052	-0.214517	0.036115	0.217163	0.970569	-0.104100	-0.012721	0.109450	0.993911						
04773														-1.550759	-10.711266	-0.393874	0.973499	-0.224467	0.043747	0.227903	0.968089	-0.104233	-0.018954	0.111441	0.993590						
04774														-0.647176	-11.644590	-0.983294	0.971838	-0.230851	0.047309	0.234457	0.967401	-0.095735	-0.023666	0.104130	0.994282						
04775														1.013884	-11.313954	-1.456055	0.970279	-0.237936	0.044102	0.240692	0.967756	-0.074261	-0.025011	0.082669	0.996263						
04776														2.059397	-11.732940	-0.636475	0.968911	-0.244617	0.037057	0.246136	0.968225	-0.044238	-0.025058	0.051984	0.998333						
04777														2.355300	-13.050836	-0.211337	0.968061	-0.249018	0.029125	0.249264	0.968422	-0.005090	-0.026938	0.012187	0.999563						
04778														1.972658	-14.058487	-0.710900	0.967481	-0.252049	0.021248	0.250910	0.966942	0.045474	-0.032007	-0.038664	0.998740						
04779														1.105494	-11.902705	-1.532919	0.966047	-0.258004	0.013706	0.255295	0.961370	0.102917	-0.039730	-0.095923	0.994596						
04780														1.191461	-11.678728	-3.772530	0.968939	-0.247302	-0.000194	0.244515	0.957901	0.150463	-0.037023	-0.145837	0.988616						
04781														1.511136	-11.600751	-5.103167	0.975868	-0.217863	-0.014774	0.216496	0.956481	0.195638	-0.028491	-0.194115	0.980565						
04782														-0.411054	-10.853140	-3.769047	0.983516	-0.179522	-0.021644	0.179403	0.953816	0.240934	-0.022608	-0.240845	0.970300						
04783														0.084842	-9.160778	-1.363598	0.989699	-0.141495	-0.021779	0.141896	0.949353	0.280348	-0.018992	-0.280551	0.959651						
04784														1.598841	-8.984756	-1.711911	0.994448	-0.103375	-0.019688	0.104294	0.943226	0.315354	-0.014029	-0.315657	0.948770						
04785														2.614357	-8.819854	-1.340930	0.997634	-0.067273	-0.014190	0.067975	0.934122	0.350422	-0.010318	-0.350558	0.936484						
04786														3.573713	-8.004794	-0.988051	0.998819	-0.047533	-0.010078	0.047786	0.923341	0.380996	-0.008805	-0.381027	0.924522						
04787														3.663286	-7.317467	-0.285128	0.998860	-0.046632	-0.010180	0.046744	0.912586	0.406205	-0.009652	-0.406218	0.913725						
04788														3.067518	-6.923749	0.362059	0.998144	-0.058718	-0.016167	0.060016	0.903159	0.425091	-0.010360	-0.425272	0.905006						
04789														2.414854	-6.911125	0.437780	0.996687	-0.077075	-0.025951	0.080651	0.895688	0.437308	-0.010462	-0.437952	0.898937						
04790														1.565296	-7.283476	1.158826	0.994633	-0.096783	-0.036571	0.102938	0.890168	0.443852	-0.010403	-0.445234	0.895354						
04791														-0.560942	-7.651502	2.155772	0.992550	-0.114115	-0.042682	0.121121	0.886300	0.446991	-0.013179	-0.448831	0.893519						
04792														-2.203231	-8.397597	3.193942	0.993231	-0.110090	-0.037044	0.114902	0.884483	0.452203	-0.017018	-0.453399	0.891145						
04793														0.096138	-8.423462	5.100650	0.995495	-0.090163	-0.029319	0.093435	0.880483	0.464780	-0.016091	-0.465425	0.884941						
04794														0.826235	-8.051090	6.104046	0.994848	-0.095066	-0.035225	0.100325	0.873106	0.477096	-0.014601	-0.478172	0.878145						
04795														-1.463396	-8.261108	5.144934	0.992457	-0.112971	-0.047617	0.121897	0.867906	0.481540	-0.013073	-0.483712	0.875130						
04796														-1.623399	-8.110528	3.015810	0.991847	-0.116213	-0.052282	0.127031	0.869207	0.477851	-0.010089	-0.480597	0.876884						
04797														0.231961	-7.302906	-0.847766	0.993517	-0.101720	-0.050770	0.113663	0.879836	0.461485	-0.002273	-0.464264	0.885694						
04798														0.963176	-8.305152	-2.131309	0.995376	-0.079801	-0.053461	0.095212	0.893232	0.439399	0.012689	-0.442457	0.896700						
04799														-0.435905	-15.803893	2.921168	0.996428	-0.052631	-0.066042	0.075437	0.906256	0.415945	0.037960	-0.419441	0.906988						
04800														0.930204	-14.639572	5.115295	0.997710	-0.010430	-0.066824	0.036682	0.913539	0.405095	0.056821	-0.406618	0.911829						
04801														3.472531	-6.896251	-2.837649	0.997931	-0.013884	-0.062776	0.037174	0.921250	0.387191	0.052457	-0.388723	0.919860						
04802														3.869748	-6.842039	-2.614414	0.997690	-0.018558	-0.065353	0.041242	0.929878	0.365549	0.053986	-0.367400	0.928495						
04803														-0.459185	-10.079862	-0.368724	0.997093	-0.017634	-0.074130	0.041809	0.939941	0.338766	0.063704	-0.340880	0.937946						
04804														-3.423601	-11.885491	-3.254972	0.996161	-0.026217	-0.083518	0.051111	0.948773	0.311798	0.071065	-0.314870	0.946471						
04805														-2.767138	-10.308754	-1.735469	0.995782	-0.024705	-0.088358	0.049815	0.954329	0.294577	0.077045	-0.297736	0.951534						
04806														-0.862089	-9.665037	-1.173601	0.995746	-0.024034	-0.088954	0.048101	0.958988	0.279337	0.078592	-0.282427	0.956064						
04807														-0.423386	-10.085067	-1.206184	0.995777	-0.023319	-0.088790	0.045878	0.964166	0.261303	0.079515	-0.264273	0.961165						
04808														-1.051299	-10.093716	-1.689752	0.995786	-0.021148	-0.089233	0.042149	0.969726	0.240532	0.081445	-0.243280	0.966531						
04809														-1.102032	-9.613095	-1.935373	0.995652	-0.023762	-0.090067	0.042963	0.975072	0.217689	0.082649	-0.220612	0.971854						
04810														-1.095112	-9.720611	-1.678429	0.995466	-0.030367	-0.090142	0.047286	0.980263	0.191962	0.082534	-0.195354	0.977254						
04811														-0.846059	-9.495302	-1.652773	0.995284	-0.043270	-0.086820	0.057146	0.984750	0.164321	0.078386	-0.168507	0.982579						
04812														-1.328337	-9.251717	-1.330235	0.995140	-0.057391	-0.080011	0.067945	0.988359	0.136126	0.071267	-0.140901	0.987455						
04813														-1.805354	-8.953617	-1.296043	0.995359	-0.063567	-0.072251	0.071083	0.991744	0.106729	0.064870	-0.111369	0.991660						
04814														-1.662708	-8.983632	-1.802926	0.995752	-0.066799	-0.063364	0.071602	0.994470	0.076832	0.057881	-0.081042	0.995029						
04815														-1.352526	-9.243701	-1.516812	0.996213	-0.068737	-0.053235	0.071303	0.996304	0.047904	0.049746	-0.051519	0.997432						
04816														-0.875591	-9.212059	-1.324461	0.996453	-0.073143	-0.041605	0.073947	0.997097	0.018123	0.040159	-0.021136	0.998970						
04817														-0.783235	-9.338125	-1.428195	0.996226	-0.081844	-0.028906	0.081524	0.996598	-0.012089	0.029797	0.009687	0.999509						
04818														-0.334312	-9.693024	-1.065230	0.995282	-0.095868	-0.014955	0.095253	0.994745	-0.037531	0.018474	0.035930	0.999184						
04819														-0.431684	-10.481441	-0.374635	0.994055	-0.108868	-0.001393	0.108595	0.992324	-0.059158	0.007823	0.058655	0.998248						
04820														-0.390169	-11.786515	0.616703	0.993290	-0.115401	0.007568	0.115642	0.990345	-0.076448	0.001328	0.076810	0.997045						
04821														-0.208024	-12.038654	2.379224	0.992032	-0.125213	0.013936	0.125944	0.988457	-0.084209	-0.003231	0.085293	0.996351						
04822														-0.526115	-11.563212	2.218373	0.989196	-0.144988	0.021672	0.146293	0.985831	-0.082070	-0.009466	0.084354	0.996391						
04823														-0.640776	-11.297666	-0.421854	0.985351	-0.167836	0.030233	0.169599	0.982978	-0.070637	-0.017863	0.074730	0.997044						
04824														0.000916	-11.101612	-1.970545	0.982303	-0.184429	0.032657	0.185869	0.981374	-0.048566	-0.023092	0.053777	0.998286						
04825														0.314798	-11.831631	-1.334444	0.980725	-0.193626	0.026224	0.194063	0.980870	-0.015277	-0.022765	0.020072	0.999539						
04826														1.015271	-13.497176	-1.115423	0.981082	-0.193105	0.013699	0.192633	0.980812	0.030015	-0.019232	-0.026808	0.999456						
04827														1.770896	-13.956539	-0.569621	0.982757	-0.184841	0.004844	0.183499	0.978178	0.097447	-0.022751	-0.094877	0.995229						
04828														2.041563	-12.782989	-1.128472	0.984139	-0.177398	-0.000822	0.175190	0.971138	0.161860	-0.027916	-0.159437	0.986813						
04829														1.996531	-12.455576	-3.014077	0.985842	-0.167315	-0.011022	0.165731	0.962307	0.215634	-0.025473	-0.214408	0.976412						
04830														1.487025	-11.347732	-5.572783	0.987784	-0.154311	-0.021714	0.154579	0.952658	0.261816	-0.019715	-0.261974	0.964874						
04831														-0.088441	-10.732677	-3.941012	0.990654	-0.133517	-0.027885	0.135654	0.943126	0.303499	-0.014223	-0.304445	0.952424						
04832														0.432706	-9.033836	-0.985013	0.993681	-0.108700	-0.027956	0.111720	0.934042	0.339242	-0.010764	-0.340221	0.940284						
04833														2.139725	-8.207584	-1.288795	0.996263	-0.083235	-0.023060	0.085859	0.925397	0.369145	-0.009386	-0.369746	0.929086						
04834														2.909364	-7.681195	-1.561466	0.997579	-0.067059	-0.018418	0.068876	0.916180	0.394805	-0.009601	-0.395118	0.918580						
04835														2.876669	-6.890254	-1.317371	0.997767	-0.064431	-0.017585	0.065928	0.908038	0.413667	-0.010685	-0.413903	0.910258						
04836														2.202557	-6.110567	-0.469039	0.997429	-0.068625	-0.020651	0.070885	0.902350	0.425134	-0.010540	-0.425505	0.904895						
04837														1.426358	-6.230425	-0.010108	0.997030	-0.072642	-0.025594	0.076587	0.899966	0.429180	-0.008143	-0.429866	0.902856						
04838														0.911862	-6.563544	-0.148492	0.997103	-0.070262	-0.029148	0.075975	0.900881	0.427366	-0.003769	-0.428342	0.903609						
04839														0.130380	-7.725545	0.507219	0.997527	-0.063076	-0.030991	0.070263	0.904248	0.421187	0.001457	-0.422323	0.906444						
04840														-1.153769	-9.650934	2.498377	0.998208	-0.050758	-0.031691	0.059358	0.906939	0.417059	0.007572	-0.418193	0.908327						
04841														-1.192489	-10.102080	4.652218	0.999086	-0.030352	-0.030110	0.040187	0.907033	0.419137	0.014589	-0.419964	0.907424						
04842														0.177366	-9.185492	5.384333	0.999399	-0.016677	-0.030398	0.027941	0.906494	0.421292	0.020530	-0.421888	0.906415						
04843														0.855498	-8.363685	4.865000	0.999143	-0.021106	-0.035613	0.034104	0.907301	0.419097	0.023467	-0.419953	0.907243						
04844														0.823259	-8.056731	3.582687	0.998559	-0.031926	-0.043139	0.046920	0.909556	0.412924	0.026054	-0.414353	0.909743						
04845														0.747556	-7.895345	1.954852	0.998276	-0.030983	-0.049855	0.048629	0.912224	0.406795	0.032875	-0.408518	0.912158						
04846														0.765917	-7.896068	0.781950	0.998489	-0.013224	-0.053345	0.033588	0.915091	0.401846	0.043501	-0.403030	0.914152						
04847														1.513602	-8.497795	1.652264	0.998554	0.009970	-0.052832	0.011939	0.916999	0.398710	0.052422	-0.398764	0.915554						
04848														-0.946975	-16.484123	1.596036	0.997392	0.031690	-0.064853	-0.004457	0.923795	0.382861	0.072043	-0.381573	0.921527						
04849														2.250104	-13.589190	4.595228	0.996162	0.050890	-0.071214	-0.019096	0.920371	0.390580	0.085420	-0.387721	0.917810						
04850														3.162992	-5.538171	-3.241972	0.997046	0.033234	-0.069247	-0.004731	0.926410	0.376487	0.076664	-0.375047	0.923830						
04851														0.759307	-6.781396	-3.883966	0.996982	0.017904	-0.075542	0.010256	0.934142	0.356753	0.076954	-0.356451	0.931140						
04852														-3.458877	-10.975255	-1.412304	0.996212	0.014655	-0.085719	0.014501	0.943906	0.329897	0.085746	-0.329890	0.940117						
04853														-4.190798	-12.846234	-3.398740	0.995653	0.013677	-0.092134	0.015303	0.951701	0.306646	0.091878	-0.306723	0.947354						
04854														-1.022446	-9.888061	-1.282928	0.995298	0.019454	-0.094886	0.009024	0.956738	0.290810	0.096438	-0.290299	0.952064						
04855														0.104604	-9.906326	-0.993409	0.995075	0.021402	-0.096788	0.005806	0.962155	0.272441	0.098956	-0.271661	0.957292						
04856														0.537285	-9.719767	-0.990802	0.995051	0.023322	-0.096586	0.002039	0.967066	0.254519	0.099341	-0.253457	0.962232						
04857														0.040180	-9.915177	-1.329315	0.995165	0.019933	-0.096169	0.003143	0.972221	0.234044	0.098163	-0.233215	0.967458						
04858														-1.036921	-10.000122	-1.698873	0.995227	0.007231	-0.097314	0.013470	0.977523	0.210397	0.096648	-0.210703	0.972761						
04859														-2.041465	-9.491857	-2.129038	0.995142	-0.008668	-0.098065	0.026722	0.982502	0.184326	0.094751	-0.186051	0.977961						
04860														-1.827244	-9.221805	-2.472540	0.995059	-0.025035	-0.096077	0.039919	0.986907	0.156273	0.090906	-0.159336	0.983030						
04861														-1.646066	-9.026087	-2.037472	0.995130	-0.039371	-0.090372	0.050716	0.990620	0.126888	0.084528	-0.130853	0.987792						
04862														-1.468279	-9.275869	-2.023508	0.995455	-0.048013	-0.082242	0.056001	0.993634	0.097753	0.077025	-0.101914	0.991807						
04863														-0.817441	-9.166534	-2.033194	0.996003	-0.052068	-0.072578	0.057178	0.995893	0.070203	0.068625	-0.074072	0.994889						
04864														-0.652173	-8.922089	-2.262169	0.996520	-0.055617	-0.062084	0.058273	0.997424	0.041822	0.059598	-0.045294	0.997194						
04865														-0.677835	-8.577097	-3.037541	0.996707	-0.063510	-0.050419	0.064181	0.997868	0.011809	0.049562	-0.015007	0.998658						
04866														-0.387366	-8.718580	-2.898006	0.996679	-0.072827	-0.036424	0.072248	0.997242	-0.016972	0.037560	0.014284	0.999192						
04867														-0.485502	-9.492205	-2.546539	0.996682	-0.078488	-0.021543	0.077464	0.995985	-0.044873	0.024979	0.043056	0.998760						
04868														-0.859689	-12.103502	-0.744439	0.996923	-0.077538	-0.011489	0.076578	0.994712	-0.068432	0.016735	0.067342	0.997590						
04869														-0.366013	-12.955786	2.751378	0.997342	-0.072277	-0.009259	0.071285	0.994110	-0.081629	0.015104	0.080752	0.996620						
04870														-0.000687	-11.790386	3.047011	0.996774	-0.079973	-0.006769	0.079141	0.993417	-0.082825	0.013348	0.082022	0.996541						
04871														-0.351626	-10.114814	0.660676	0.994432	-0.105368	0.001293	0.105138	0.991296	-0.079240	0.007068	0.078935	0.996855						
04872														-0.448169	-10.014428	-1.315548	0.991151	-0.132131	0.012700	0.132712	0.988367	-0.074282	-0.002737	0.075310	0.997156						
04873														-1.686058	-11.105381	-1.284984	0.988935	-0.146985	0.020052	0.147976	0.986960	-0.063355	-0.010478	0.065621	0.997790						
04874														-2.668301	-12.724697	-0.882817	0.988065	-0.152681	0.020387	0.153445	0.987198	-0.043539	-0.013479	0.046148	0.998844						
04875														-1.452411	-13.312190	-0.837847	0.987693	-0.155756	0.014224	0.155915	0.987710	-0.010901	-0.012351	0.012984	0.999839						
04876														-0.275889	-13.976177	0.587558	0.987521	-0.157463	0.002876	0.157268	0.986935	0.035004	-0.008350	-0.034114	0.999383						
04877														0.747825	-14.098337	1.378722	0.988320	-0.152075	-0.009786	0.152266	0.982898	0.103573	-0.006132	-0.103853	0.994574						
04878														2.264623	-12.719928	-1.410941	0.991022	-0.132789	-0.015567	0.133456	0.975500	0.174895	-0.008039	-0.175402	0.984464						
04879														2.958895	-12.233163	-1.704445	0.994384	-0.104276	-0.018102	0.105548	0.964477	0.242166	-0.007793	-0.242717	0.970066						
04880														2.441313	-10.363105	-3.865156	0.995261	-0.093414	-0.027005	0.097224	0.951107	0.293159	-0.001701	-0.294396	0.955682						
04881														0.719346	-10.616236	-6.236100	0.996257	-0.078240	-0.036741	0.086070	0.937088	0.338315	0.007960	-0.340212	0.940315						
04882														-0.222530	-10.465741	-1.986720	0.997580	-0.060489	-0.034267	0.069048	0.919501	0.386977	0.008101	-0.388406	0.921453						
04883														1.706003	-8.645595	0.698591	0.999061	-0.036170	-0.023866	0.042921	0.901863	0.429884	0.005975	-0.430505	0.902569						
04884														3.461163	-7.959112	-0.595534	0.999578	-0.023102	-0.017634	0.028655	0.884753	0.465179	0.004856	-0.465487	0.885041						
04885														3.149552	-6.831927	-1.148445	0.999456	-0.027282	-0.018542	0.032876	0.869877	0.492172	0.002702	-0.492513	0.870301						
04886														1.733007	-5.998336	-0.956584	0.998894	-0.041021	-0.022984	0.047007	0.859164	0.509537	-0.001155	-0.510054	0.860141						
04887														1.037426	-6.357820	-0.637082	0.998253	-0.052827	-0.026471	0.058888	0.852643	0.519164	-0.004856	-0.519816	0.854265						
04888														1.008321	-6.149180	-0.599487	0.997982	-0.057077	-0.027811	0.063183	0.849581	0.523660	-0.006262	-0.524360	0.851473						
04889														1.397350	-5.904697	-0.215982	0.997546	-0.062838	-0.030865	0.069711	0.850934	0.520627	-0.006451	-0.521501	0.853226						
04890														1.172948	-6.417156	-0.236442	0.996831	-0.071238	-0.035404	0.079329	0.857040	0.509107	-0.005925	-0.510302	0.859975						
04891														0.071001	-7.446791	0.889289	0.996019	-0.080854	-0.037542	0.088849	0.866138	0.491844	-0.007251	-0.493221	0.869874						
04892														-2.095445	-8.378411	3.072652	0.995964	-0.083335	-0.033328	0.089174	0.876743	0.472620	-0.010166	-0.473684	0.880636						
04893														-2.333537	-9.596427	4.247871	0.997135	-0.071760	-0.023939	0.074822	0.888916	0.451918	-0.011150	-0.452415	0.891738						
04894														-0.322983	-12.707731	5.805172	0.998342	-0.054835	-0.017512	0.056983	0.898345	0.435578	-0.008153	-0.435854	0.899980						
04895														0.213383	-15.740911	8.321082	0.998840	-0.045003	-0.017118	0.047962	0.898649	0.436039	-0.004241	-0.436354	0.899765						
04896														0.112598	-15.120003	7.542749	0.999124	-0.038480	-0.016437	0.041747	0.889897	0.454247	-0.002852	-0.454535	0.890724						
04897														3.049720	-8.933102	4.264264	0.999342	-0.032462	-0.016193	0.036248	0.875743	0.481416	-0.001447	-0.481686	0.876343						
04898														3.245425	-5.064486	2.648950	0.999026	-0.037434	-0.023365	0.044097	0.866484	0.497254	0.001631	-0.497799	0.867291						
04899														1.858313	-5.342503	0.696020	0.998693	-0.040276	-0.031479	0.050601	0.866262	0.497020	0.007251	-0.497963	0.867168						
04900														1.219657	-6.884992	0.754866	0.998809	-0.033126	-0.035821	0.046436	0.870695	0.489625	0.014970	-0.490706	0.871197						
04901														0.514961	-7.240703	1.401877	0.999031	-0.022132	-0.038047	0.037667	0.877087	0.478852	0.022773	-0.479821	0.877071						
04902														0.124694	-6.917084	1.451101	0.999066	-0.011480	-0.041646	0.029392	0.887148	0.460548	0.031659	-0.461342	0.886657						
04903														-0.183027	-6.953733	1.750804	0.998906	-0.001846	-0.046718	0.022203	0.898082	0.439266	0.041146	-0.439823	0.897141						
04904														0.742293	-7.993484	-0.331710	0.998395	-0.012137	-0.055323	0.033416	0.914883	0.402333	0.045731	-0.403536	0.913820						
04905														-2.256983	-21.884676	2.973921	0.997778	0.004894	-0.066451	0.019204	0.933856	0.357133	0.063803	-0.357616	0.931687						
04906														-5.234128	-20.328557	7.495689	0.993721	0.071977	-0.085656	-0.035150	0.927671	0.371741	0.106217	-0.366396	0.924377						
04907														6.501569	-3.238255	-3.533814	0.993277	0.085366	-0.078183	-0.049529	0.923862	0.379506	0.104627	-0.373083	0.921880						
04908														6.958228	-0.619248	-6.706333	0.993985	0.071793	-0.082702	-0.037332	0.932044	0.360418	0.102957	-0.355163	0.929117						
04909														-2.342435	-12.231715	-1.316447	0.994312	0.050494	-0.093774	-0.017473	0.945876	0.324056	0.105061	-0.320575	0.941379						
04910														-6.829298	-13.798636	-5.231676	0.993924	0.040191	-0.102469	-0.007612	0.953821	0.300278	0.109806	-0.297674	0.948332						
04911														-0.919510	-10.030479	-0.394447	0.993200	0.049801	-0.105234	-0.017636	0.957820	0.286826	0.115079	-0.283020	0.952185						
04912														-1.535650	-10.146874	-0.570224	0.992952	0.052384	-0.106315	-0.022231	0.963420	0.267072	0.116416	-0.262826	0.957794						
04913														-1.223381	-9.111985	-1.564718	0.992990	0.054127	-0.105078	-0.026948	0.969246	0.244613	0.115087	-0.240067	0.963910						
04914														-0.751183	-8.801078	-0.583952	0.993326	0.049351	-0.104253	-0.025711	0.975841	0.216965	0.112442	-0.212836	0.970597						
04915														-0.531921	-8.998277	-0.611804	0.993987	0.035831	-0.103467	-0.015841	0.982059	0.187908	0.108343	-0.185139	0.976722						
04916														-0.401321	-9.207021	-1.378092	0.994794	0.012750	-0.101104	0.003352	0.987512	0.157510	0.101850	-0.157028	0.982328						
04917														-1.606274	-9.756693	-1.161414	0.995272	-0.006592	-0.096904	0.019109	0.991484	0.128815	0.095230	-0.130058	0.986923						
04918														-1.657937	-9.995177	-1.156004	0.995702	-0.014506	-0.091477	0.024176	0.994125	0.105508	0.089409	-0.107266	0.990202						
04919														-1.131046	-9.920317	-1.181260	0.996190	-0.014502	-0.085993	0.021900	0.996078	0.085722	0.084413	-0.087279	0.992601						
04920														-0.470667	-9.865469	-1.168491	0.996543	-0.022111	-0.080077	0.027428	0.997448	0.065920	0.078415	-0.067888	0.994607						
04921														0.089004	-9.757027	-1.215163	0.996403	-0.043108	-0.072959	0.046494	0.997888	0.045359	0.070849	-0.048588	0.996303						
04922														-0.274839	-9.506839	-2.085716	0.995287	-0.071275	-0.065756	0.072966	0.997053	0.023692	0.063873	-0.028378	0.997554						
04923														-1.462583	-9.746526	-2.725307	0.993806	-0.094146	-0.059044	0.094559	0.995510	0.004226	0.058381	-0.009783	0.998246						
04924														-1.978230	-9.974531	-2.794560	0.992924	-0.105665	-0.054185	0.105249	0.994391	-0.010475	0.054988	0.004698	0.998476						
04925														-1.804487	-10.036656	-2.232476	0.992434	-0.112049	-0.050188	0.111114	0.993584	-0.021060	0.052226	0.015324	0.998518						
04926														-1.039297	-9.872775	-1.395495	0.991968	-0.117249	-0.047452	0.115880	0.992790	-0.030640	0.050703	0.024895	0.998403						
04927														-0.164297	-9.517371	-1.333628	0.991198	-0.124553	-0.044868	0.122785	0.991618	-0.040228	0.049502	0.034365	0.998183						
04928														0.499249	-9.583692	-1.556037	0.989987	-0.135203	-0.040571	0.133134	0.989837	-0.049985	0.046917	0.044083	0.997926						
04929														1.138675	-9.572362	-1.600113	0.988286	-0.148716	-0.034269	0.146567	0.987474	-0.058425	0.042528	0.052718	0.997703						
04930														0.979160	-8.740728	-2.288966	0.985762	-0.166364	-0.024419	0.164482	0.984210	-0.065396	0.034913	0.060449	0.997561						
04931														-0.223145	-9.242132	-2.945008	0.982949	-0.183438	-0.012677	0.182107	0.980717	-0.070937	0.025445	0.067419	0.997400						
04932														-1.273145	-9.582207	-2.906500	0.980147	-0.198267	-0.001745	0.197586	0.977440	-0.074640	0.016505	0.072813	0.997209						
04933														-1.422498	-9.623257	-1.972483	0.977610	-0.210332	0.006228	0.210182	0.974637	-0.076855	0.010095	0.076443	0.997023						
04934														-1.350005	-9.354066	-2.239576	0.974480	-0.224035	0.014031	0.224427	0.971089	-0.081351	0.004600	0.082423	0.996587						
04935														-1.619596	-9.469355	-2.239396	0.971403	-0.236342	0.022783	0.237433	0.967462	-0.087427	-0.001379	0.090336	0.995910						
04936														-1.370162	-9.913370	-1.643880	0.968698	-0.246185	0.031884	0.248089	0.964578	-0.089669	-0.008680	0.094773	0.995461						
04937														-1.280950	-10.397538	-1.002766	0.966170	-0.254685	0.040627	0.257342	0.962430	-0.086621	-0.017040	0.094146	0.995413						
04938														-2.171170	-11.693211	-0.628558	0.963833	-0.262098	0.048268	0.265182	0.961214	-0.075798	-0.026530	0.085857	0.995954						
04939														-1.975886	-13.741329	-1.161765	0.962625	-0.266013	0.050904	0.268489	0.961972	-0.050235	-0.035605	0.062025	0.997439						
04940														-0.488196	-13.247571	-0.574873	0.964287	-0.261304	0.043250	0.261879	0.965067	-0.008112	-0.039620	0.019148	0.999031						
04941														1.930667	-12.456666	0.150062	0.968981	-0.245174	0.031090	0.243597	0.968729	0.047165	-0.041681	-0.038129	0.998403						
04942														3.407568	-12.990110	-1.433834	0.974460	-0.223736	0.019215	0.220400	0.969297	0.109029	-0.043018	-0.102009	0.993853						
04943														5.001797	-13.108438	-3.167407	0.979578	-0.200788	0.010538	0.196172	0.965920	0.168864	-0.044085	-0.163348	0.985583						
04944														4.557290	-12.362107	-3.646611	0.981709	-0.190385	-0.000708	0.185924	0.957893	0.218799	-0.040978	-0.214928	0.975770						
04945														1.748475	-11.220469	-3.631067	0.981893	-0.188651	-0.017250	0.186636	0.947745	0.258738	-0.032463	-0.257273	0.965793						
04946														-0.119943	-10.049916	-3.368461	0.983251	-0.179551	-0.031282	0.180689	0.937873	0.296221	-0.023848	-0.296912	0.954607						
04947														0.323948	-9.433636	-1.725066	0.986417	-0.160702	-0.034009	0.162751	0.928166	0.334694	-0.022220	-0.335683	0.941713						
04948														1.991474	-9.136195	-0.574250	0.990007	-0.137980	-0.029116	0.138886	0.918258	0.370826	-0.024431	-0.371164	0.928246						
04949														2.930654	-8.154623	-0.958497	0.992943	-0.116044	-0.024466	0.116016	0.907671	0.403329	-0.024597	-0.403321	0.914728						
04950														3.003210	-6.798902	-0.979855	0.994605	-0.101189	-0.022833	0.101143	0.897097	0.430102	-0.023039	-0.430091	0.902492						
04951														2.437695	-7.004031	-0.572504	0.994868	-0.098322	-0.023868	0.098548	0.888229	0.448706	-0.022918	-0.448756	0.893361						
04952														2.160794	-7.472423	-0.421834	0.994452	-0.101861	-0.026257	0.102411	0.880523	0.462809	-0.024022	-0.462930	0.886069						
04953														2.124687	-7.543723	0.101317	0.993168	-0.112291	-0.031744	0.113899	0.873675	0.472990	-0.025378	-0.473374	0.880496						
04954														1.521118	-7.706988	1.082002	0.991348	-0.124936	-0.040260	0.128885	0.868372	0.478872	-0.024867	-0.479917	0.876961						
04955														0.098915	-8.020736	2.172263	0.989912	-0.133182	-0.048340	0.139898	0.864795	0.482242	-0.022422	-0.484140	0.874703						
04956														-1.851649	-8.839751	3.442883	0.990326	-0.129468	-0.049927	0.137327	0.862866	0.486420	-0.019895	-0.488570	0.872298						
04957														-1.690235	-8.285624	4.264182	0.992603	-0.112980	-0.044442	0.120189	0.862736	0.491163	-0.017150	-0.492871	0.869933						
04958														-0.365310	-7.437259	3.960477	0.994403	-0.098299	-0.038731	0.104612	0.864687	0.491297	-0.014804	-0.492599	0.870131						
04959														0.333663	-7.820002	3.717804	0.994695	-0.095518	-0.038177	0.101973	0.866892	0.487955	-0.013513	-0.489260	0.872034						
04960														0.208541	-8.691778	3.577026	0.994075	-0.100429	-0.041584	0.107991	0.868948	0.482978	-0.012371	-0.484607	0.874645						
04961														0.263894	-8.882753	3.622552	0.994086	-0.099354	-0.043831	0.108205	0.872171	0.477084	-0.009172	-0.479006	0.877764						
04962														0.512617	-8.758399	3.308401	0.995204	-0.087302	-0.044130	0.097791	0.876697	0.470998	-0.002431	-0.473055	0.881030						
04963														0.884401	-8.198538	2.555113	0.996775	-0.067630	-0.043185	0.079975	0.881167	0.465993	0.006538	-0.467944	0.883734						
04964														1.264421	-7.537172	2.059467	0.997772	-0.050120	-0.044043	0.064759	0.886383	0.458400	0.016064	-0.460231	0.887654						
04965														1.753202	-7.801356	1.759852	0.998016	-0.039303	-0.049182	0.057063	0.894743	0.442921	0.026597	-0.444848	0.895211						
04966														2.829086	-8.812419	1.001313	0.997890	-0.036525	-0.053675	0.055841	0.904601	0.422586	0.033119	-0.424691	0.904732						
04967														2.719743	-10.302427	-0.829521	0.997406	-0.048169	-0.053490	0.065372	0.917214	0.392995	0.030131	-0.395473	0.917983						
04968														-3.016605	-21.381261	4.657207	0.997999	-0.025817	-0.057719	0.045776	0.924730	0.377861	0.043619	-0.379747	0.924061						
04969														3.181595	-10.532623	1.644055	0.998257	0.011029	-0.057975	0.011971	0.924115	0.381926	0.057788	-0.381955	0.922373						
04970														5.338270	-4.397957	-5.186401	0.998147	-0.009948	-0.060027	0.031035	0.931800	0.361644	0.052335	-0.362837	0.930382						
04971														1.357589	-7.247354	-1.048004	0.996460	-0.040937	-0.073433	0.063077	0.941500	0.331058	0.055585	-0.334517	0.940749						
04972														-5.284547	-12.041000	-2.967299	0.993520	-0.077338	-0.083284	0.098718	0.950336	0.295154	0.056322	-0.301463	0.951813						
04973														-5.237879	-11.393824	-2.458788	0.992524	-0.088159	-0.084403	0.108048	0.956287	0.271737	0.056757	-0.278825	0.958663						
04974														-2.733015	-9.879501	-0.562933	0.993583	-0.076973	-0.082878	0.095822	0.962134	0.255180	0.060098	-0.261484	0.963335						
04975														-2.188435	-10.003209	-1.207449	0.994092	-0.071584	-0.081595	0.089201	0.967078	0.238336	0.061847	-0.244206	0.967749						
04976														-2.048831	-9.864217	-1.772676	0.994716	-0.062498	-0.081445	0.079103	0.972280	0.220032	0.065435	-0.225312	0.972087						
04977														-0.430657	-9.391621	-1.947679	0.995319	-0.052336	-0.081245	0.067577	0.977881	0.197947	0.069088	-0.202510	0.976840						
04978														0.711354	-9.683373	-1.781925	0.995463	-0.051164	-0.080225	0.064425	0.982890	0.172560	0.070023	-0.176945	0.981727						
04979														0.173119	-9.189111	-1.480132	0.995033	-0.063595	-0.076580	0.074173	0.986747	0.144324	0.066387	-0.149287	0.986563						
04980														-1.339421	-9.411493	-1.923927	0.994012	-0.083051	-0.071018	0.090851	0.989229	0.114768	0.060721	-0.120533	0.990851						
04981														-1.939999	-9.398967	-1.968909	0.992798	-0.100013	-0.065949	0.105517	0.990686	0.086069	0.056727	-0.092408	0.994104						
04982														-1.900253	-9.152267	-1.686254	0.991840	-0.111547	-0.061732	0.115189	0.991592	0.058957	0.054636	-0.065586	0.996350						
04983														-1.625715	-9.406267	-1.644338	0.991087	-0.120892	-0.055954	0.122890	0.991846	0.033751	0.051417	-0.040326	0.997863						
04984														-1.140619	-9.927607	-1.344446	0.990320	-0.129925	-0.048835	0.130634	0.991363	0.011603	0.046905	-0.017870	0.998739						
04985														0.152035	-10.101604	-0.067460	0.989207	-0.140460	-0.041722	0.140281	0.990086	-0.007196	0.042319	0.001266	0.999103						
04986														0.593129	-9.754419	-0.517363	0.987428	-0.154485	-0.033485	0.153670	0.987788	-0.025688	0.037044	0.020220	0.999109						
04987														-0.388614	-10.504708	-0.659590	0.986349	-0.162673	-0.025544	0.161552	0.986007	-0.041128	0.031877	0.036440	0.998827						
04988														-0.843699	-10.554095	-0.592543	0.985401	-0.169241	-0.018499	0.168111	0.984432	-0.051300	0.026893	0.047442	0.998512						
04989														-1.032619	-10.286541	-1.071867	0.983884	-0.178492	-0.010650	0.177627	0.982480	-0.056399	0.020530	0.053598	0.998352						
04990														-1.017627	-10.013087	-1.533025	0.982573	-0.185838	-0.003770	0.185317	0.980989	-0.057604	0.014404	0.055902	0.998332						
04991														-0.795495	-9.744317	-1.901701	0.981086	-0.193549	0.002857	0.193399	0.979491	-0.056521	0.008141	0.056005	0.998397						
04992														-0.675139	-10.563560	-2.373529	0.979686	-0.200301	0.009726	0.200533	0.978237	-0.053272	0.001156	0.054140	0.998533						
04993														-0.340331	-11.732655	-3.066171	0.978606	-0.205119	0.016032	0.205642	0.977602	-0.044783	-0.006487	0.047122	0.998868						
04994														0.779439	-11.533451	-2.736519	0.977504	-0.209990	0.019773	0.210535	0.977080	-0.031447	-0.012716	0.034902	0.999310						
04995														1.953808	-11.697886	-1.642742	0.976519	-0.214395	0.021086	0.214725	0.976561	-0.014860	-0.017406	0.019039	0.999667						
04996														2.169064	-11.884077	-0.531622	0.976724	-0.213150	0.024044	0.213010	0.977015	0.008301	-0.025261	-0.002986	0.999676						
04997														1.257359	-12.162269	0.707975	0.977688	-0.207989	0.029433	0.206619	0.977442	0.043773	-0.037873	-0.036715	0.998608						
04998														0.533734	-11.366717	0.968449	0.978725	-0.202282	0.034354	0.198442	0.975779	0.092064	-0.052145	-0.083288	0.995160						
04999														0.848556	-11.141498	-0.743335	0.979793	-0.196548	0.037064	0.189286	0.971060	0.145647	-0.064618	-0.135688	0.988642						
05000														1.870591	-11.551653	-2.097841	0.981028	-0.190434	0.036321	0.179622	0.963337	0.199292	-0.072941	-0.188987	0.979267						
