// General information: 
//  MT Manager version: 2022.2.0 
//  XDA version: 2022.2.0 build 7381 rev 124627 built on 2023-07-19
// Device information: 
//  DeviceId: 00B4D4C5
//  ProductCode: MTW2-3A7G6
//  Firmware Version: 4.6.0
//  Hardware Version: 2.0.0
// Device settings: 
//  Filter Profile: human(46.1)
//  Option Flags: Orientation Smoother Disabled, Position/Velocity Smoother Disabled, Continuous Zero Rotation Update Disabled, AHS Disabled, ICC Disabled
// Coordinate system: ENU
PacketCounter	SampleTimeFine	Year	Month	Day	Second	UTC_Nano	UTC_Year	UTC_Month	UTC_Day	UTC_Hour	UTC_Minute	UTC_Second	UTC_Valid	Acc_X	Acc_Y	Acc_Z	Mat[1][1]	Mat[2][1]	Mat[3][1]	Mat[1][2]	Mat[2][2]	Mat[3][2]	Mat[1][3]	Mat[2][3]	Mat[3][3]	Latitude	Longitude	Altitude	Vel_E	Vel_N	Vel_U
04221														1.768275	9.651902	-0.219800	0.991837	0.127373	0.005999	-0.127305	0.991808	-0.010532	-0.007291	0.009682	0.999927						
04222														1.954391	9.478726	-0.203704	0.992152	0.124859	0.006614	-0.124780	0.992121	-0.011192	-0.007959	0.010279	0.999915						
04223														2.261698	9.536532	-0.408826	0.992393	0.122913	0.006960	-0.122818	0.992347	-0.012750	-0.008474	0.011798	0.999894						
04224														2.047102	9.579665	-0.398109	0.992317	0.123464	0.008030	-0.123328	0.992243	-0.015640	-0.009899	0.014529	0.999845						
04225														1.488864	9.509997	-0.438839	0.992541	0.121535	0.009523	-0.121347	0.992441	-0.018301	-0.011675	0.017009	0.999787						
04226														1.847197	9.382628	-0.536866	0.992759	0.119739	0.009641	-0.119526	0.992624	-0.020255	-0.011995	0.018956	0.999748						
04227														1.774789	9.462955	-0.498591	0.992811	0.119328	0.009389	-0.119098	0.992636	-0.022128	-0.011960	0.020850	0.999711						
04228														1.901336	9.410864	-0.648787	0.993106	0.116803	0.009852	-0.116544	0.992903	-0.023677	-0.012548	0.022365	0.999671						
04229														1.584154	9.650432	-1.000724	0.993301	0.115105	0.010191	-0.114831	0.993088	-0.024273	-0.012914	0.022940	0.999653						
04230														1.553491	10.116395	-1.327425	0.993398	0.114314	0.009605	-0.114050	0.993172	-0.024532	-0.012344	0.023275	0.999653						
04231														1.734833	9.721418	-1.507210	0.993071	0.117179	0.008843	-0.116900	0.992769	-0.027296	-0.011978	0.026073	0.999588						
04232														1.525927	9.254090	-1.255197	0.992929	0.118374	0.008864	-0.118065	0.992561	-0.029724	-0.012317	0.028467	0.999519						
04233														1.963612	9.025089	-1.004139	0.993183	0.116179	0.009535	-0.115860	0.992841	-0.029034	-0.012840	0.027731	0.999533						
04234														2.512540	9.118649	-0.635301	0.992957	0.118201	0.008104	-0.117952	0.992670	-0.026319	-0.011156	0.025177	0.999621						
04235														2.498034	9.364156	-0.099634	0.992699	0.120488	0.005586	-0.120345	0.992504	-0.021305	-0.008112	0.020477	0.999757						
04236														2.813970	9.647693	0.086152	0.992088	0.125448	0.004984	-0.125343	0.991957	-0.017599	-0.007152	0.016835	0.999833						
04237														2.238414	9.715614	0.428799	0.991354	0.131131	0.004715	-0.131052	0.991270	-0.014459	-0.006569	0.013716	0.999884						
04238														2.435685	9.616414	0.525812	0.990592	0.136762	0.004913	-0.136699	0.990546	-0.011476	-0.006436	0.010696	0.999922						
04239														2.425201	9.596908	0.629698	0.988860	0.148758	0.005210	-0.148697	0.988825	-0.010673	-0.006739	0.009780	0.999929						
04240														2.196314	9.721177	0.523025	0.986032	0.166491	0.004669	-0.166406	0.985947	-0.014735	-0.007057	0.013752	0.999881						
04241														1.610804	9.498737	0.447581	0.984220	0.176915	0.003552	-0.176815	0.984050	-0.019525	-0.006950	0.018589	0.999803						
04242														1.861574	9.501886	0.147402	0.984325	0.176341	0.002897	-0.176240	0.984114	-0.021419	-0.006628	0.020573	0.999766						
04243														2.741173	9.605302	-0.187759	0.983703	0.179762	0.003766	-0.179616	0.983423	-0.024837	-0.008168	0.023756	0.999684						
04244														1.366845	9.530772	-0.075465	0.982438	0.186544	0.004205	-0.186347	0.982053	-0.029085	-0.009555	0.027790	0.999568						
04245														1.497055	9.540661	0.038443	0.983510	0.180805	0.004195	-0.180614	0.983136	-0.028667	-0.009307	0.027437	0.999580						
04246														2.388198	9.474193	-0.042846	0.984045	0.177868	0.004355	-0.177676	0.983677	-0.028469	-0.009347	0.027241	0.999585						
04247														2.206137	9.638934	0.005035	0.983474	0.181003	0.004051	-0.180792	0.983026	-0.031219	-0.009633	0.029970	0.999504						
04248														1.650550	9.537405	0.005597	0.983647	0.180043	0.004830	-0.179786	0.983137	-0.033450	-0.010771	0.032035	0.999429						
04249														2.098173	9.505203	-0.201742	0.983932	0.178460	0.005442	-0.178168	0.983383	-0.034843	-0.011570	0.033313	0.999378						
04250														2.034354	9.614126	-0.245777	0.983518	0.180748	0.004844	-0.180451	0.982891	-0.036914	-0.011434	0.035431	0.999307						
04251														1.823919	9.589753	-0.158925	0.983076	0.183157	0.003849	-0.182880	0.982391	-0.038248	-0.010786	0.036897	0.999261						
04252														2.128491	9.615631	-0.152369	0.982929	0.183958	0.003227	-0.183698	0.982222	-0.038662	-0.010282	0.037409	0.999247						
04253														2.145398	9.596298	-0.048512	0.982277	0.187410	0.002964	-0.187141	0.981504	-0.040338	-0.010469	0.039069	0.999182						
04254														2.002264	9.577575	-0.006921	0.981849	0.189649	0.002558	-0.189367	0.980966	-0.042956	-0.010655	0.041692	0.999074						
04255														2.258052	9.461554	-0.029435	0.981891	0.189425	0.003019	-0.189094	0.980900	-0.045599	-0.011598	0.044202	0.998955						
04256														2.253321	9.471326	-0.162558	0.981800	0.189878	0.003943	-0.189467	0.980683	-0.048610	-0.013097	0.046979	0.998810						
04257														1.932257	9.570872	-0.192189	0.981980	0.188942	0.004137	-0.188494	0.980762	-0.050748	-0.013646	0.049054	0.998703						
04258														2.367206	9.581222	-0.276681	0.982477	0.186318	0.004932	-0.185815	0.981205	-0.052058	-0.014538	0.050229	0.998632						
04259														2.189401	9.653456	-0.405885	0.981722	0.190196	0.006862	-0.189538	0.980316	-0.055278	-0.017240	0.052967	0.998447						
04260														1.349985	9.367676	-0.269708	0.981211	0.192787	0.007656	-0.192047	0.979717	-0.057214	-0.018531	0.054669	0.998333						
04261														1.860924	9.377780	-0.260346	0.981251	0.192580	0.007665	-0.191847	0.979779	-0.056814	-0.018451	0.054279	0.998355						
04262														1.789412	9.578817	-0.216386	0.980792	0.194924	0.007241	-0.194206	0.979298	-0.057086	-0.018219	0.054583	0.998343						
04263														1.552246	9.482539	-0.199064	0.980652	0.195634	0.007020	-0.194932	0.979170	-0.056811	-0.017988	0.054343	0.998360						
04264														1.596587	9.492907	-0.186247	0.980549	0.196166	0.006498	-0.195512	0.979122	-0.055632	-0.017275	0.053279	0.998430						
04265														1.896015	9.641503	-0.061109	0.980304	0.197440	0.004633	-0.196905	0.978919	-0.054288	-0.015254	0.052306	0.998515						
04266														1.877213	9.617765	0.077503	0.979954	0.199206	0.002829	-0.198791	0.978652	-0.052171	-0.013162	0.050563	0.998634						
04267														2.227325	9.578814	0.071368	0.979716	0.200382	0.001859	-0.200058	0.978583	-0.048498	-0.011538	0.047142	0.998822						
04268														2.013198	9.653820	0.025284	0.979261	0.202598	0.001379	-0.202341	0.978321	-0.044114	-0.010287	0.042920	0.999026						
04269														2.183428	9.593913	-0.016432	0.979219	0.202804	0.001213	-0.202599	0.978466	-0.039480	-0.009194	0.038413	0.999220						
04270														1.931532	9.691426	-0.087554	0.979367	0.202088	0.001100	-0.201926	0.978773	-0.035056	-0.008161	0.034110	0.999385						
04271														2.020018	9.537693	-0.262759	0.979431	0.201776	0.000846	-0.201651	0.978955	-0.031373	-0.007158	0.030557	0.999507						
04272														1.710452	9.490208	-0.272041	0.979838	0.199789	-0.000945	-0.199741	0.979476	-0.027019	-0.004473	0.026663	0.999634						
04273														2.094252	9.597960	-0.386230	0.980494	0.196531	-0.002735	-0.196541	0.980223	-0.023105	-0.001860	0.023192	0.999729						
04274														1.858606	9.553410	-0.334553	0.980701	0.195476	-0.003875	-0.195514	0.980472	-0.021174	-0.000340	0.021523	0.999768						
04275														1.356243	9.459062	-0.209909	0.981707	0.190293	-0.006364	-0.190379	0.981539	-0.018368	0.002751	0.019243	0.999811						
04276														1.960608	9.579897	-0.328364	0.983667	0.179766	-0.009171	-0.179890	0.983567	-0.015367	0.006258	0.016766	0.999840						
04277														2.823904	9.598719	-0.511030	0.984546	0.174842	-0.010012	-0.174985	0.984443	-0.015887	0.007079	0.017394	0.999824						
04278														2.298496	9.400733	-0.551440	0.983441	0.180978	-0.009566	-0.181132	0.983279	-0.018813	0.006001	0.020234	0.999777						
04279														1.143792	9.546868	-0.239333	0.983115	0.182678	-0.010683	-0.182856	0.982953	-0.019138	0.007005	0.020769	0.999760						
04280														2.330251	9.958683	-0.381604	0.983837	0.178653	-0.012158	-0.178849	0.983720	-0.017563	0.008822	0.019454	0.999772						
04281														2.728566	9.927188	-0.464204	0.982251	0.187219	-0.011464	-0.187433	0.982032	-0.021965	0.007146	0.023724	0.999693						
04282														1.058958	9.686005	-0.072125	0.979377	0.201457	-0.015341	-0.201853	0.978910	-0.031459	0.008680	0.033907	0.999387						
04283														1.206708	9.422731	0.019792	0.977585	0.209125	-0.024393	-0.209972	0.976893	-0.039900	0.015485	0.044127	0.998906						
04284														1.926260	9.803860	-0.076513	0.976723	0.212136	-0.031795	-0.213449	0.975870	-0.046015	0.021266	0.051731	0.998435						
04285														2.077047	9.638566	-0.167221	0.975770	0.216325	-0.032799	-0.217797	0.974653	-0.051151	0.020903	0.057055	0.998152						
04286														1.396343	9.333302	-0.145682	0.974514	0.222057	-0.031825	-0.223544	0.973128	-0.055223	0.018707	0.060930	0.997967						
04287														1.473668	9.217703	-0.083331	0.973833	0.224770	-0.033594	-0.226375	0.972439	-0.055834	0.020118	0.061978	0.997875						
04288														1.877222	9.640607	0.134610	0.974476	0.221825	-0.034500	-0.223431	0.973271	-0.053117	0.021795	0.059470	0.997992						
04289														2.265837	9.767285	-0.028550	0.974484	0.222164	-0.032008	-0.223626	0.973217	-0.053297	0.019310	0.059095	0.998066						
04290														1.400930	9.511654	0.054436	0.973922	0.224925	-0.029756	-0.226273	0.972530	-0.054642	0.016648	0.059950	0.998063						
04291														1.586767	9.593644	0.063544	0.974107	0.224219	-0.028991	-0.225519	0.972717	-0.054439	0.015994	0.059567	0.998096						
04292														2.020000	9.643502	-0.030251	0.973731	0.226019	-0.027624	-0.227250	0.972255	-0.055470	0.014320	0.060291	0.998078						
04293														1.578524	9.672036	-0.013807	0.972736	0.230475	-0.025805	-0.231614	0.971105	-0.057536	0.011799	0.061944	0.998010						
04294														0.941330	9.552416	0.072572	0.973318	0.228153	-0.024445	-0.229209	0.971696	-0.057186	0.010705	0.061263	0.998064						
04295														1.803809	9.424641	-0.105107	0.974330	0.223908	-0.023377	-0.224886	0.972816	-0.055268	0.010367	0.059106	0.998198						
04296														1.887638	9.445631	-0.220002	0.974161	0.224711	-0.022707	-0.225648	0.972642	-0.055238	0.009673	0.058934	0.998215						
04297														1.681570	9.605364	-0.257633	0.973198	0.228943	-0.021689	-0.229820	0.971616	-0.056079	0.008234	0.059561	0.998191						
04298														0.893931	9.530982	-0.098883	0.973145	0.229264	-0.020644	-0.230067	0.971648	-0.054489	0.007566	0.057775	0.998301						
04299														1.758517	9.658103	-0.147433	0.973765	0.226601	-0.020815	-0.227395	0.972431	-0.051672	0.008533	0.055049	0.998447						
04300														1.669817	9.740921	-0.104120	0.972945	0.230051	-0.021344	-0.230865	0.971636	-0.051225	0.008954	0.054766	0.998459						
04301														1.300395	9.504681	0.021414	0.972322	0.232571	-0.022394	-0.233437	0.971035	-0.050980	0.009889	0.054796	0.998449						
04302														1.591119	9.570751	0.151555	0.971791	0.234618	-0.024008	-0.235568	0.970529	-0.050803	0.011382	0.055026	0.998420						
04303														1.917098	9.732224	0.263180	0.970081	0.241381	-0.026053	-0.242476	0.968655	-0.053966	0.012210	0.058668	0.998203						
04304														1.350379	9.560288	0.293662	0.967629	0.250697	-0.029088	-0.252049	0.965813	-0.060639	0.012891	0.066008	0.997736						
04305														1.400044	9.428572	0.217886	0.966306	0.255464	-0.031478	-0.257045	0.964132	-0.066159	0.013448	0.072021	0.997312						
04306														1.663409	9.586201	0.095424	0.965705	0.257576	-0.032699	-0.259294	0.963261	-0.069965	0.013476	0.076044	0.997013						
04307														1.707470	9.692632	0.066645	0.964856	0.260645	-0.033423	-0.262456	0.962147	-0.073421	0.013021	0.079613	0.996741						
04308														1.775524	9.670155	0.104556	0.964678	0.261250	-0.033835	-0.263111	0.961861	-0.074811	0.013000	0.081071	0.996624						
04309														1.735936	9.628035	0.225114	0.964898	0.260375	-0.034306	-0.262277	0.962088	-0.074820	0.013525	0.081191	0.996607						
04310														2.013223	9.638028	0.110826	0.965507	0.258223	-0.033426	-0.260062	0.962673	-0.075019	0.012807	0.081124	0.996622						
04311														1.760514	9.557493	0.073587	0.965924	0.256849	-0.031938	-0.258576	0.963040	-0.075440	0.011381	0.081128	0.996639						
04312														1.654135	9.638851	0.114347	0.966029	0.256590	-0.030811	-0.258229	0.963123	-0.075579	0.010282	0.080968	0.996664						
04313														1.576222	9.607171	0.124497	0.965930	0.257057	-0.030010	-0.258630	0.963013	-0.075612	0.009463	0.080798	0.996686						
04314														1.668870	9.552151	0.112012	0.965543	0.258537	-0.029749	-0.260084	0.962623	-0.075589	0.009094	0.080722	0.996695						
04315														1.590275	9.558821	0.131736	0.965802	0.257618	-0.029305	-0.259119	0.962992	-0.074182	0.009110	0.079238	0.996814						
04316														1.748173	9.589926	0.104882	0.966239	0.256100	-0.028196	-0.257497	0.963619	-0.071654	0.008820	0.076495	0.997031						
04317														1.869346	9.604964	0.072583	0.966135	0.256606	-0.027149	-0.257900	0.963700	-0.069068	0.008440	0.073730	0.997242						
04318														1.536401	9.533743	0.187389	0.965302	0.259768	-0.026684	-0.260998	0.963054	-0.066389	0.008453	0.071050	0.997437						
04319														1.413272	9.537819	0.369953	0.965738	0.258124	-0.026873	-0.259333	0.963774	-0.062343	0.009807	0.067176	0.997693						
04320														2.007519	9.720562	0.345420	0.965477	0.259092	-0.026933	-0.260278	0.963676	-0.059866	0.010443	0.064809	0.997843						
04321														1.598046	9.688623	0.500238	0.964439	0.262893	-0.027293	-0.264098	0.962621	-0.060110	0.010470	0.065181	0.997819						
04322														1.503246	9.431953	0.433725	0.963252	0.267142	-0.027957	-0.268394	0.961362	-0.061217	0.010523	0.066470	0.997733						
04323														1.470738	9.495266	0.440624	0.962526	0.269609	-0.029231	-0.270946	0.960624	-0.061567	0.011481	0.067180	0.997675						
04324														1.943890	9.784072	0.336881	0.961715	0.272424	-0.029829	-0.273808	0.959746	-0.062584	0.011579	0.068356	0.997594						
04325														1.895117	9.712918	0.105213	0.959680	0.279489	-0.030007	-0.280903	0.957491	-0.065609	0.010394	0.071393	0.997394						
04326														1.580437	9.474613	-0.112989	0.957475	0.286770	-0.031698	-0.288318	0.955100	-0.068247	0.010704	0.074484	0.997165						
04327														2.485911	9.471331	-0.476208	0.954504	0.296284	-0.033744	-0.297987	0.951968	-0.070427	0.011257	0.077278	0.996946						
04328														2.184392	9.433300	-0.725067	0.949945	0.310461	-0.034902	-0.312243	0.947199	-0.072927	0.010418	0.080174	0.996726						
04329														1.584682	9.410798	-0.677598	0.946860	0.319671	-0.035587	-0.321480	0.944113	-0.072812	0.010322	0.080383	0.996711						
04330														1.863901	9.593313	-0.701552	0.946953	0.319402	-0.035521	-0.321131	0.944720	-0.066178	0.012420	0.074074	0.997175						
04331														2.922802	9.731006	-0.680637	0.945504	0.323907	-0.033266	-0.325366	0.943813	-0.057922	0.012636	0.065589	0.997767						
04332														1.864269	9.640283	-0.285568	0.941997	0.334171	-0.031177	-0.335398	0.940692	-0.051052	0.012267	0.058548	0.998209						
04333														1.275572	9.365237	0.090423	0.941424	0.335846	-0.030462	-0.336898	0.940640	-0.041187	0.014821	0.049037	0.998687						
04334														2.429898	9.688206	0.341112	0.942559	0.332746	-0.029378	-0.333576	0.942236	-0.030285	0.017604	0.038345	0.999109						
04335														2.545185	9.618933	0.457206	0.940980	0.337466	-0.025930	-0.338072	0.940809	-0.024216	0.016223	0.031553	0.999370						
04336														1.754559	9.420231	0.460874	0.937564	0.347081	-0.022534	-0.347555	0.937393	-0.022358	0.013363	0.028794	0.999496						
04337														1.667861	9.441107	0.184829	0.934442	0.355455	-0.021673	-0.355909	0.934240	-0.022885	0.012113	0.029098	0.999503						
04338														1.672681	9.918829	-0.347398	0.931136	0.364035	-0.021561	-0.364509	0.930861	-0.025110	0.010930	0.031240	0.999452						
04339														0.816679	10.237509	-0.775163	0.932044	0.361901	-0.017963	-0.362234	0.931843	-0.021318	0.009024	0.026376	0.999611						
04340														1.358158	10.270719	-1.131537	0.933563	0.358246	-0.010934	-0.358374	0.933477	-0.013738	0.005285	0.016744	0.999846						
04341														0.851138	9.518304	-0.979461	0.932116	0.362110	-0.005981	-0.362137	0.932116	-0.004141	0.004076	0.006026	0.999974						
04342														0.771113	9.201945	-0.666677	0.928654	0.370875	-0.007327	-0.370819	0.928671	0.007966	0.009759	-0.004680	0.999941						
04343														1.611825	9.247157	-0.773441	0.923249	0.384034	-0.011394	-0.383799	0.923232	0.018471	0.017613	-0.012680	0.999764						
04344														1.993705	9.045075	-1.322391	0.916059	0.400797	-0.014094	-0.400394	0.916009	0.024743	0.022827	-0.017023	0.999594						
04345														2.279937	8.835317	-2.585327	0.908749	0.417075	-0.014956	-0.416550	0.908648	0.029077	0.025717	-0.020193	0.999465						
04346														2.745441	8.888809	-4.048685	0.903408	0.428584	-0.013008	-0.427929	0.903110	0.035635	0.027020	-0.026627	0.999280						
04347														2.486694	9.181880	-5.246007	0.899160	0.437537	-0.008573	-0.436714	0.898385	0.046747	0.028156	-0.038289	0.998870						
04348														2.506299	9.561113	-5.997921	0.893817	0.448416	-0.003882	-0.447290	0.892122	0.063636	0.031999	-0.055143	0.997966						
04349														2.334428	10.092810	-6.196436	0.886134	0.463429	-0.000168	-0.461664	0.882789	0.086892	0.040417	-0.076921	0.996218						
04350														2.523495	10.535226	-6.797045	0.880779	0.473523	0.002344	-0.470541	0.874656	0.116478	0.053105	-0.103694	0.993191						
04351														2.651886	10.618963	-7.166380	0.878847	0.477038	0.007910	-0.472367	0.867672	0.154965	0.067061	-0.139927	0.987888						
04352														2.852180	10.794784	-7.171257	0.876870	0.480452	0.016315	-0.473531	0.857392	0.201614	0.082878	-0.184514	0.979329						
04353														2.626174	10.765894	-7.220039	0.873643	0.486035	0.022768	-0.475080	0.841975	0.255690	0.105104	-0.234198	0.966491						
04354														2.919379	11.092708	-7.136725	0.873321	0.486479	0.025456	-0.468125	0.823620	0.320170	0.134790	-0.291528	0.947018						
04355														3.467549	11.424119	-7.040654	0.873043	0.486561	0.032456	-0.459455	0.798453	0.389068	0.163391	-0.354585	0.920637						
04356														3.314637	11.305832	-7.082578	0.869081	0.492436	0.046964	-0.456925	0.762765	0.457612	0.189522	-0.419161	0.887911						
04357														2.587580	11.435181	-7.087921	0.861227	0.503801	0.066879	-0.459594	0.715881	0.525630	0.216936	-0.483424	0.848080						
04358														1.817753	11.211653	-6.670020	0.856454	0.509834	0.080963	-0.450975	0.662621	0.597959	0.251212	-0.548637	0.797427						
04359														3.178072	10.936944	-5.647569	0.853478	0.512293	0.095554	-0.435399	0.600231	0.670933	0.286360	-0.614230	0.735336						
04360														3.519784	10.611976	-4.370500	0.845601	0.518363	0.127509	-0.433747	0.527962	0.730150	0.311163	-0.672723	0.671284						
04361														1.251869	9.630145	-3.082698	0.834527	0.523447	0.171953	-0.444185	0.454534	0.772074	0.325981	-0.720696	0.611828						
04362														-0.443685	8.297328	-2.109482	0.829750	0.520637	0.201130	-0.442268	0.393501	0.805951	0.340463	-0.757690	0.556768						
04363														0.938452	7.048978	-1.660165	0.826625	0.517356	0.221437	-0.437427	0.343143	0.831210	0.354047	-0.783961	0.509956						
04364														1.249908	5.872899	-1.395754	0.818867	0.516996	0.249342	-0.445671	0.298934	0.843810	0.361710	-0.802093	0.475198						
04365														-0.336702	4.765294	-0.858126	0.810626	0.518223	0.272636	-0.455091	0.264567	0.850233	0.368480	-0.813295	0.450304						
04366														0.420393	4.124492	-0.265478	0.808106	0.519661	0.277340	-0.451065	0.243135	0.858735	0.378820	-0.819047	0.430879						
04367														1.787052	4.008777	0.204524	0.806820	0.519890	0.280636	-0.449530	0.231989	0.862615	0.383360	-0.822129	0.420880						
04368														1.446605	4.598918	0.321256	0.803154	0.519700	0.291300	-0.461149	0.232719	0.856262	0.377208	-0.822042	0.426568						
04369														-1.046903	5.595278	0.055233	0.804784	0.518717	0.288540	-0.468179	0.255913	0.845764	0.364872	-0.815746	0.448807						
04370														0.179653	6.867591	-1.170868	0.815596	0.514438	0.264871	-0.461725	0.302741	0.833761	0.348731	-0.802310	0.484444						
04371														2.546716	7.968520	-2.439109	0.820693	0.513039	0.251504	-0.469613	0.354937	0.808383	0.325464	-0.781544	0.532224						
04372														2.448610	10.015190	-2.784481	0.810852	0.524866	0.258911	-0.504598	0.402866	0.763596	0.296479	-0.749810	0.591511						
04373														1.623253	11.753145	-3.509516	0.789124	0.550367	0.272727	-0.555605	0.450269	0.698972	0.261890	-0.703104	0.661104						
04374														1.966391	12.084290	-3.863449	0.764160	0.582252	0.277563	-0.604985	0.497722	0.621503	0.223722	-0.642849	0.732593						
04375														3.505921	13.219142	-3.452889	0.739798	0.615431	0.271926	-0.647218	0.540483	0.537575	0.183869	-0.573692	0.798166						
04376														7.413924	15.148060	-3.418413	0.699738	0.660926	0.271189	-0.701743	0.564755	0.434291	0.133879	-0.494194	0.858981						
04377														5.142924	15.444875	-3.301948	0.634610	0.724317	0.269508	-0.769561	0.560204	0.306507	0.071029	-0.401916	0.912918						
04378														4.021021	15.007338	-2.818313	0.580829	0.776861	0.243154	-0.813938	0.549879	0.187452	0.011919	-0.306790	0.951703						
04379														5.586708	15.028465	-2.398125	0.546515	0.812407	0.203264	-0.836389	0.541710	0.083687	-0.042122	-0.215744	0.975541						
04380														5.517244	14.345467	-2.080154	0.527511	0.834458	0.159411	-0.844628	0.535306	-0.007153	-0.091303	-0.130869	0.987186						
04381														6.210962	13.665590	-1.905559	0.517370	0.847996	0.115025	-0.845219	0.527393	-0.086384	-0.133917	-0.052529	0.989599						
04382														7.640454	13.219705	-1.649542	0.507591	0.858683	0.070817	-0.844560	0.512135	-0.156321	-0.170498	0.019538	0.985164						
04383														9.324696	12.739170	-1.499810	0.475084	0.879602	0.024425	-0.854921	0.467969	-0.223864	-0.208341	0.085472	0.974314						
04384														9.269100	11.227257	-1.775830	0.402690	0.914802	-0.031277	-0.879662	0.377323	-0.289520	-0.253052	0.144100	0.956661						
04385														7.526835	9.189090	-1.911315	0.294525	0.950310	-0.100824	-0.907345	0.244962	-0.341640	-0.299966	0.192104	0.934407						
04386														5.636155	8.079708	-1.063579	0.168137	0.969549	-0.178056	-0.925640	0.093168	-0.366756	-0.338998	0.226481	0.913119						
04387														3.398371	7.876472	0.589173	0.046473	0.966674	-0.251757	-0.929749	-0.050294	-0.364743	-0.365249	0.251022	0.896427						
04388														1.642851	8.000781	2.417082	-0.046330	0.948894	-0.312177	-0.923597	-0.159747	-0.348496	-0.380555	0.272180	0.883797						
04389														0.716284	7.718864	3.655794	-0.097735	0.928846	-0.357341	-0.916175	-0.224203	-0.332198	-0.388678	0.294920	0.872898						
04390														1.140351	7.585584	4.019404	-0.107130	0.915860	-0.386942	-0.914161	-0.243762	-0.323868	-0.390939	0.319032	0.863357						
04391														2.696657	7.607785	3.642900	-0.084327	0.910852	-0.404027	-0.916670	-0.229876	-0.326916	-0.390648	0.342791	0.854335						
04392														4.739672	7.734396	2.983418	-0.048998	0.908101	-0.415876	-0.918593	-0.204451	-0.338211	-0.392156	0.365449	0.844193						
04393														6.248414	7.666588	2.272049	-0.022912	0.903409	-0.428167	-0.918104	-0.188519	-0.348635	-0.395678	0.385113	0.833743						
04394														6.978122	7.601328	1.838605	-0.015987	0.898104	-0.439493	-0.916830	-0.188550	-0.351953	-0.398957	0.397314	0.826423						
04395														6.814921	7.487143	1.858577	-0.024911	0.895589	-0.444184	-0.916948	-0.197466	-0.346718	-0.398228	0.398656	0.826128						
04396														6.950445	8.699366	1.903136	-0.043065	0.897523	-0.438859	-0.917875	-0.209007	-0.337376	-0.394527	0.388288	0.832815						
04397														6.858704	11.147889	1.929804	-0.074524	0.902955	-0.423225	-0.917166	-0.228669	-0.326369	-0.391475	0.363845	0.845201						
04398														5.857508	12.920107	1.943397	-0.118311	0.910124	-0.397085	-0.914242	-0.255900	-0.314130	-0.387511	0.325867	0.862349						
04399														4.788866	12.962263	1.977464	-0.163397	0.919112	-0.358518	-0.910853	-0.280154	-0.303086	-0.379010	0.277034	0.882952						
04400														4.396057	12.485150	1.825303	-0.201745	0.930386	-0.306073	-0.908969	-0.294243	-0.295289	-0.364793	0.218638	0.905055						
04401														4.161091	12.559040	1.679511	-0.232174	0.942808	-0.239184	-0.909313	-0.297686	-0.290747	-0.345320	0.149989	0.926422						
04402														3.788424	13.046620	1.556494	-0.255385	0.953774	-0.158410	-0.911994	-0.292041	-0.288060	-0.321007	0.070903	0.944419						
04403														3.890325	14.133948	1.564356	-0.273209	0.959516	-0.068452	-0.916403	-0.281250	-0.284788	-0.292511	-0.015077	0.956143						
04404														3.876800	14.768742	1.876750	-0.288349	0.957207	0.024706	-0.922045	-0.270614	-0.276769	-0.258240	-0.102587	0.960619						
04405														4.348085	15.367403	2.193819	-0.299365	0.946851	0.117700	-0.928831	-0.260976	-0.262993	-0.218299	-0.188054	0.957591						
04406														4.594884	16.089101	2.045137	-0.303513	0.929382	0.210068	-0.935852	-0.249339	-0.249022	-0.179058	-0.272173	0.945442						
04407														5.147825	15.648306	1.710588	-0.298114	0.905250	0.302737	-0.944044	-0.232737	-0.233696	-0.141095	-0.355466	0.923979						
04408														5.427833	14.820899	1.592815	-0.279606	0.875491	0.394126	-0.954944	-0.211042	-0.208671	-0.099513	-0.434714	0.895054						
04409														6.144257	14.536414	1.532344	-0.247051	0.839947	0.483171	-0.967608	-0.187101	-0.169492	-0.051962	-0.509394	0.858963						
04410														7.054453	14.288528	1.288483	-0.207607	0.795775	0.568895	-0.978200	-0.165987	-0.124791	-0.004876	-0.582401	0.812887						
04411														7.326848	13.507513	0.907618	-0.170502	0.740215	0.650393	-0.984636	-0.153248	-0.083712	0.037707	-0.654673	0.754971						
04412														7.123879	12.505354	0.686736	-0.137486	0.674614	0.725254	-0.987484	-0.150489	-0.047215	0.077290	-0.722668	0.686861						
04413														6.557528	11.562974	0.361860	-0.109309	0.600977	0.791756	-0.987423	-0.157182	-0.017014	0.114224	-0.783658	0.610600						
04414														5.892700	10.394261	0.183070	-0.085616	0.521090	0.849197	-0.985660	-0.168694	0.004140	0.145412	-0.836665	0.528060						
04415														4.248600	9.269539	0.542150	-0.065385	0.434881	0.898111	-0.983513	-0.180159	0.015633	0.168601	-0.882282	0.439491						
04416														2.414227	8.303981	0.808081	-0.046231	0.346428	0.936937	-0.982249	-0.186461	0.020477	0.181796	-0.919359	0.348898						
04417														1.109273	7.284945	0.889075	-0.030809	0.260622	0.964949	-0.982736	-0.184101	0.018347	0.182429	-0.947725	0.261795						
04418														0.087555	5.604841	0.469783	-0.034754	0.179415	0.983159	-0.984863	-0.173308	-0.003188	0.169817	-0.968388	0.182722						
04419														-1.757318	3.629814	0.169225	-0.053782	0.114805	0.991931	-0.986457	-0.160258	-0.034937	0.154954	-0.980376	0.121870						
04420														-3.186721	2.576875	0.084570	-0.073742	0.078516	0.994182	-0.986931	-0.148969	-0.061439	0.143279	-0.985720	0.088475						
04421														-2.854547	2.051279	0.334651	-0.089410	0.072765	0.993333	-0.986994	-0.140253	-0.078566	0.133601	-0.987438	0.084359						
04422														-1.654516	2.012161	0.691557	-0.107575	0.091990	0.989932	-0.986601	-0.132730	-0.094879	0.122666	-0.986874	0.105035						
04423														-0.372751	2.456999	1.152603	-0.135109	0.129553	0.982325	-0.984836	-0.126453	-0.118778	0.108830	-0.983476	0.144673						
04424														1.206709	3.701636	1.554222	-0.174698	0.184464	0.967188	-0.980569	-0.121628	-0.153918	0.089245	-0.975284	0.202128						
04425														2.227485	5.698585	1.622967	-0.222261	0.261184	0.939352	-0.973162	-0.118357	-0.197352	0.059634	-0.958006	0.280480						
04426														3.324109	7.351847	1.630823	-0.262991	0.356757	0.896415	-0.964470	-0.121443	-0.234625	0.025159	-0.926270	0.376020						
04427														6.008095	9.709888	2.027516	-0.293296	0.458756	0.838761	-0.955984	-0.132981	-0.261553	-0.008450	-0.878555	0.477566						
04428														8.480927	11.607516	2.789931	-0.326364	0.553505	0.766237	-0.944286	-0.154426	-0.290648	-0.042548	-0.818404	0.573066						
04429														8.224458	12.779932	3.748981	-0.364769	0.634836	0.681122	-0.927826	-0.186559	-0.323008	-0.077987	-0.749786	0.657068						
04430														6.769911	14.195805	4.463433	-0.395491	0.708320	0.584697	-0.910992	-0.221447	-0.347930	-0.116967	-0.670257	0.732853						
04431														5.637853	15.582254	4.827597	-0.404744	0.777967	0.480573	-0.900389	-0.247310	-0.357964	-0.159633	-0.577586	0.800570						
04432														5.756362	16.442347	4.901781	-0.391769	0.841307	0.372451	-0.898142	-0.261858	-0.353230	-0.199646	-0.472898	0.858201						
04433														6.294316	16.831270	4.939366	-0.365902	0.893457	0.260480	-0.900849	-0.269762	-0.340147	-0.233639	-0.359114	0.903576						
04434														6.990663	16.759921	4.941765	-0.334905	0.930888	0.145897	-0.904890	-0.274577	-0.325241	-0.262703	-0.240946	0.934308						
04435														7.629063	15.837127	4.787801	-0.305211	0.951687	0.033751	-0.907957	-0.280133	-0.311671	-0.287158	-0.125769	0.949591						
04436														7.979390	14.465592	4.643894	-0.280318	0.957436	-0.068839	-0.909486	-0.287847	-0.299967	-0.307014	-0.021478	0.951463						
04437														7.746854	12.724972	4.334734	-0.257062	0.953846	-0.155232	-0.911394	-0.292701	-0.289287	-0.321372	0.067113	0.944572						
04438														6.842010	11.640451	4.137011	-0.225764	0.948834	-0.220783	-0.916442	-0.283721	-0.282198	-0.330400	0.138625	0.933605						
04439														6.423504	10.481756	3.581152	-0.179595	0.947729	-0.263735	-0.924807	-0.254054	-0.283178	-0.335378	0.193046	0.922092						
04440														6.381036	9.463345	3.331915	-0.122990	0.950277	-0.286090	-0.933013	-0.208954	-0.292959	-0.338172	0.230894	0.912320						
04441														6.237543	9.089272	3.004393	-0.063393	0.954081	-0.292766	-0.937488	-0.157517	-0.310329	-0.342194	0.254792	0.904425						
04442														5.780496	8.911040	2.600002	-0.007962	0.957206	-0.289299	-0.936770	-0.108359	-0.332747	-0.349855	0.268357	0.897544						
04443														5.752876	8.129171	2.144930	0.035043	0.958368	-0.283377	-0.932391	-0.070718	-0.354465	-0.359748	0.276640	0.891096						
04444														5.911187	7.425817	1.662408	0.058990	0.957188	-0.283392	-0.927293	-0.052582	-0.370624	-0.369658	0.284651	0.884493						
04445														6.542254	7.109978	1.448130	0.061368	0.954220	-0.292743	-0.924330	-0.056340	-0.377412	-0.376627	0.293752	0.878557						
04446														7.260668	7.093047	1.553113	0.044686	0.950100	-0.308728	-0.924736	-0.077587	-0.372618	-0.377978	0.302143	0.875124						
04447														7.292581	7.504627	1.834386	0.018897	0.946399	-0.322446	-0.927588	-0.103761	-0.358907	-0.373126	0.305879	0.875908						
04448														7.352987	8.124987	2.029015	-0.005936	0.945814	-0.324656	-0.930550	-0.124091	-0.344498	-0.366118	0.300064	0.880863						
04449														7.781949	8.685411	1.904287	-0.031369	0.949946	-0.310834	-0.932252	-0.139957	-0.333643	-0.360446	0.279310	0.889980						
04450														7.530495	9.533713	1.474471	-0.064371	0.957128	-0.282421	-0.931961	-0.158845	-0.325909	-0.356798	0.242226	0.902231						
04451														7.017793	10.839801	1.269471	-0.107010	0.963682	-0.244674	-0.929805	-0.184156	-0.318668	-0.352152	0.193398	0.915743						
04452														6.032963	11.688703	1.547915	-0.157703	0.966936	-0.200411	-0.926396	-0.215143	-0.309035	-0.341935	0.136924	0.929695						
04453														4.918951	12.497843	1.673278	-0.204394	0.967332	-0.149971	-0.922912	-0.241496	-0.299854	-0.326276	0.077122	0.942123						
04454														4.462063	13.142096	1.684085	-0.238978	0.966612	-0.092467	-0.921447	-0.255785	-0.292421	-0.306310	0.015321	0.951809						
04455														4.939123	14.005518	1.431172	-0.261847	0.964736	-0.026861	-0.922345	-0.258341	-0.287297	-0.284105	-0.050453	0.957465						
04456														5.472747	15.395235	1.113267	-0.283681	0.957738	0.047572	-0.922794	-0.259169	-0.285101	-0.260723	-0.124777	0.957316						
04457														5.595881	16.604004	1.151397	-0.311762	0.941480	0.128143	-0.920814	-0.266114	-0.285104	-0.234319	-0.206880	0.949892						
04458														5.194652	16.923835	1.292171	-0.341566	0.915979	0.210512	-0.917758	-0.276775	-0.284809	-0.202614	-0.290480	0.935184						
04459														5.107782	16.553554	1.478247	-0.363701	0.883646	0.294775	-0.916686	-0.283277	-0.281853	-0.165555	-0.372726	0.913054						
04460														5.363866	15.875261	1.698585	-0.371449	0.845275	0.384105	-0.920427	-0.280969	-0.271790	-0.121815	-0.454497	0.882380						
04461														5.901413	15.595150	2.202080	-0.366281	0.798909	0.477057	-0.927678	-0.273593	-0.254089	-0.072474	-0.535622	0.841342						
04462														6.072037	14.950884	2.290212	-0.355753	0.741485	0.568893	-0.934249	-0.265941	-0.237602	-0.024886	-0.616015	0.787341						
04463														5.799295	13.461476	1.980442	-0.344242	0.672857	0.654798	-0.938697	-0.260474	-0.225835	0.018603	-0.692399	0.721275						
04464														5.325303	11.990683	2.023172	-0.333311	0.594361	0.731874	-0.940874	-0.259504	-0.217749	0.060502	-0.761179	0.645714						
04465														3.939488	10.658108	2.130738	-0.322137	0.509013	0.798206	-0.941817	-0.257781	-0.215708	0.095964	-0.821252	0.562438						
04466														2.514007	8.873525	1.952722	-0.306310	0.423487	0.852545	-0.944163	-0.249340	-0.215372	0.121366	-0.870913	0.476216						
04467														1.734739	6.888585	1.608466	-0.286211	0.343405	0.894515	-0.948189	-0.235888	-0.212826	0.137920	-0.909082	0.393126						
04468														0.781539	5.168158	1.401130	-0.265434	0.269979	0.925557	-0.952606	-0.221418	-0.208605	0.148616	-0.937062	0.315955						
04469														-0.034539	4.169870	1.289096	-0.246914	0.205934	0.946902	-0.957300	-0.203462	-0.205376	0.150365	-0.957180	0.247379						
04470														-0.064352	3.083589	0.924919	-0.236570	0.157580	0.958751	-0.961343	-0.181064	-0.207450	0.140905	-0.970765	0.194322						
04471														0.214914	2.137384	0.425388	-0.237722	0.128689	0.962771	-0.963228	-0.159008	-0.216581	0.125216	-0.978854	0.161757						
04472														0.247245	1.893521	0.307783	-0.246152	0.118216	0.961995	-0.963018	-0.142032	-0.228960	0.109567	-0.982778	0.148806						
04473														0.519967	2.289620	0.587026	-0.257650	0.125310	0.958078	-0.961519	-0.131134	-0.241424	0.095384	-0.983413	0.154275						
04474														1.704344	2.941479	1.013291	-0.275336	0.150770	0.949452	-0.958044	-0.124842	-0.258003	0.079632	-0.980654	0.178818						
04475														2.139347	3.575012	1.471922	-0.300705	0.190172	0.934565	-0.951721	-0.123208	-0.281154	0.061678	-0.973989	0.218040						
04476														1.828026	4.471325	2.049370	-0.328490	0.239626	0.913605	-0.943671	-0.123956	-0.306789	0.039732	-0.962920	0.266847						
04477														0.941584	5.631357	2.358617	-0.352165	0.301302	0.886113	-0.935876	-0.124242	-0.329696	0.010754	-0.945400	0.325735						
04478														0.180712	6.752313	2.236333	-0.365181	0.382047	0.848930	-0.930565	-0.124039	-0.344476	-0.026306	-0.915781	0.400816						
04479														0.942826	8.511422	2.256894	-0.365316	0.483458	0.795495	-0.928498	-0.128099	-0.348544	-0.066604	-0.865944	0.495686						
04480														3.830486	12.132569	2.535679	-0.359175	0.598258	0.716297	-0.927092	-0.140550	-0.347485	-0.107210	-0.788881	0.605122						
04481														6.229439	15.446800	3.101419	-0.353708	0.705962	0.613603	-0.924082	-0.162199	-0.346070	-0.144786	-0.689427	0.709738						
04482														7.431941	17.671623	3.956286	-0.352277	0.792488	0.497859	-0.918584	-0.190935	-0.346046	-0.179179	-0.579229	0.795229						
04483														7.566836	18.469363	4.466429	-0.352543	0.856737	0.376451	-0.911134	-0.222508	-0.346878	-0.213420	-0.465287	0.859046						
04484														7.054686	18.277359	4.596661	-0.349277	0.901501	0.255543	-0.903848	-0.252219	-0.345606	-0.247111	-0.351684	0.902914						
04485														6.372965	17.920656	4.511952	-0.335021	0.931308	0.142918	-0.900228	-0.271615	-0.340317	-0.278121	-0.242672	0.929386						
04486														6.259684	17.274759	4.274138	-0.307973	0.950492	0.041437	-0.901601	-0.277672	-0.331685	-0.303758	-0.139510	0.942480						
04487														6.406300	15.977919	3.867389	-0.271934	0.961029	-0.049748	-0.907144	-0.273254	-0.320034	-0.321155	-0.041900	0.946099						
04488														6.809563	14.460446	3.590090	-0.231401	0.964096	-0.130281	-0.915252	-0.261135	-0.306794	-0.329800	0.048247	0.942817						
04489														7.357312	12.598347	3.639429	-0.195079	0.960085	-0.200450	-0.923416	-0.248666	-0.292349	-0.330525	0.128068	0.935068						
04490														7.258066	11.248641	3.940435	-0.169553	0.949990	-0.262242	-0.929774	-0.242421	-0.277043	-0.326761	0.196853	0.924379						
04491														6.721627	10.177938	4.195032	-0.152002	0.936423	-0.316238	-0.934119	-0.240660	-0.263635	-0.322980	0.255331	0.911312						
04492														6.116329	9.386565	4.191802	-0.136954	0.922489	-0.360911	-0.937162	-0.238690	-0.254468	-0.320890	0.303382	0.897212						
04493														5.805014	8.597284	4.038929	-0.120648	0.911432	-0.393365	-0.939690	-0.232610	-0.250750	-0.320043	0.339389	0.884527						
04494														5.655555	8.072345	3.738162	-0.101642	0.904160	-0.414926	-0.942056	-0.221511	-0.251921	-0.319688	0.365278	0.874284						
04495														5.873890	7.752790	3.336137	-0.081547	0.899858	-0.428493	-0.943776	-0.207913	-0.257019	-0.320370	0.383442	0.866219						
04496														6.445941	7.664485	2.891699	-0.066618	0.897627	-0.435692	-0.943977	-0.198150	-0.263901	-0.323217	0.393702	0.860540						
04497														6.747912	7.698714	2.406935	-0.063998	0.896897	-0.437583	-0.942447	-0.198512	-0.269047	-0.328173	0.395181	0.857983						
04498														6.602738	7.850799	2.091442	-0.073552	0.897598	-0.434635	-0.939771	-0.208250	-0.271039	-0.333797	0.388522	0.858854						
04499														6.469312	8.201820	1.960106	-0.091353	0.900538	-0.425072	-0.936696	-0.222599	-0.270280	-0.338017	0.373472	0.863865						
04500														6.406454	8.794857	1.848498	-0.117199	0.905783	-0.407211	-0.932943	-0.240969	-0.267490	-0.340413	0.348555	0.873286						
04501														6.220907	9.954631	1.730415	-0.151930	0.912150	-0.380656	-0.927119	-0.265009	-0.264992	-0.342590	0.312654	0.885934						
04502														5.735254	11.450271	1.400966	-0.196171	0.917735	-0.345367	-0.918108	-0.295601	-0.264002	-0.344375	0.265295	0.900569						
04503														5.165627	12.719991	1.078065	-0.247770	0.920856	-0.301057	-0.905820	-0.330417	-0.265171	-0.343658	0.207002	0.915996						
04504														4.501435	13.827680	0.829307	-0.300933	0.920948	-0.247578	-0.891758	-0.363755	-0.269166	-0.337946	0.139779	0.930728						
04505														4.012111	14.568547	0.517999	-0.349575	0.918804	-0.183296	-0.878335	-0.389476	-0.277195	-0.326077	0.064095	0.943168						
04506														4.186534	14.912387	0.390773	-0.391307	0.914197	-0.105466	-0.867693	-0.404703	-0.288661	-0.306575	-0.021443	0.951605						
04507														4.483798	15.049614	0.842966	-0.429436	0.902939	-0.016922	-0.859709	-0.414471	-0.298520	-0.276559	-0.113647	0.954253						
04508														4.138584	15.013500	1.524982	-0.463491	0.882709	0.077470	-0.854193	-0.421839	-0.303985	-0.235651	-0.207069	0.949522						
04509														4.038466	15.220311	2.081244	-0.488433	0.855119	0.173794	-0.851879	-0.424134	-0.307265	-0.189037	-0.298130	0.935619						
04510														4.802681	15.460520	2.449886	-0.505260	0.819992	0.268932	-0.851191	-0.422240	-0.311748	-0.142078	-0.386427	0.911311						
04511														5.809444	15.646390	3.039564	-0.519388	0.774666	0.360733	-0.849280	-0.421184	-0.318321	-0.094658	-0.471696	0.876666						
04512														5.902532	15.404583	3.306250	-0.530187	0.719823	0.448060	-0.846395	-0.418052	-0.329922	-0.050173	-0.554156	0.830900						
04513														6.068107	14.627940	3.325884	-0.533849	0.658327	0.530670	-0.845524	-0.408377	-0.343973	-0.009733	-0.632324	0.774643						
04514														5.916536	14.010819	3.385540	-0.528643	0.591793	0.608538	-0.848412	-0.391239	-0.356551	0.027079	-0.704779	0.708910						
04515														4.847438	12.599796	2.920394	-0.510121	0.523418	0.682502	-0.858055	-0.364420	-0.361856	0.059315	-0.770215	0.635020						
04516														4.388530	10.525638	2.412716	-0.480046	0.456523	0.749095	-0.872884	-0.333600	-0.356067	0.087345	-0.824802	0.558635						
04517														4.181288	8.534687	1.929423	-0.447720	0.391594	0.803867	-0.887075	-0.307575	-0.344232	0.112451	-0.867209	0.485081						
04518														3.536232	7.163103	1.470302	-0.416984	0.327850	0.847726	-0.898895	-0.286852	-0.331216	0.134583	-0.900128	0.414315						
04519														2.667197	6.063242	1.116641	-0.387768	0.265448	0.882708	-0.909316	-0.266967	-0.319175	0.150930	-0.926427	0.344897						
04520														1.743565	4.939971	0.903147	-0.359193	0.206443	0.910144	-0.919521	-0.245026	-0.307316	0.159566	-0.947282	0.277840						
04521														0.854845	3.712703	0.601485	-0.331146	0.154776	0.930799	-0.929556	-0.222946	-0.293632	0.162071	-0.962465	0.217701						
04522														0.309574	2.834134	0.381660	-0.307104	0.114894	0.944715	-0.938318	-0.202293	-0.280422	0.158891	-0.972562	0.169932						
04523														-0.068297	2.240959	0.178814	-0.288801	0.090486	0.953103	-0.945413	-0.183922	-0.269010	0.150955	-0.978767	0.138663						
04524														-0.297794	1.861684	0.057988	-0.275799	0.083108	0.957616	-0.951060	-0.168033	-0.259328	0.139358	-0.982272	0.125384						
04525														-0.545487	1.894351	0.160791	-0.266315	0.091658	0.959518	-0.955658	-0.154898	-0.250447	0.125671	-0.983669	0.128846						
04526														-0.285730	2.281581	0.287783	-0.261271	0.116839	0.958168	-0.959060	-0.143799	-0.243979	0.109277	-0.982685	0.149626						
04527														0.121714	3.110871	0.632500	-0.264650	0.159671	0.951034	-0.960173	-0.135257	-0.244484	0.089597	-0.977860	0.189108						
04528														0.762186	4.832825	1.107374	-0.277333	0.222242	0.934716	-0.958577	-0.129755	-0.253562	0.064932	-0.966319	0.249021						
04529														2.024496	6.679510	1.471117	-0.296335	0.304960	0.905088	-0.954463	-0.128720	-0.269130	0.034430	-0.943626	0.329218						
04530														3.396134	8.492376	1.827554	-0.314266	0.402939	0.859579	-0.949332	-0.135458	-0.283583	0.002170	-0.905147	0.425093						
04531														5.210994	10.940462	2.540714	-0.325878	0.507255	0.797807	-0.944971	-0.148991	-0.291260	-0.028877	-0.848819	0.527894						
04532														6.445228	13.259645	3.445203	-0.331606	0.606467	0.722658	-0.941588	-0.165068	-0.293538	-0.058734	-0.777785	0.625780						
04533														7.446645	15.307296	4.166702	-0.337529	0.697236	0.632405	-0.937151	-0.185780	-0.295354	-0.088443	-0.692349	0.716122						
04534														8.126295	16.723906	4.596370	-0.348418	0.777163	0.524045	-0.929634	-0.214963	-0.299286	-0.119943	-0.591446	0.797374						
04535														8.136262	17.476805	4.733627	-0.359476	0.840940	0.404472	-0.920508	-0.248445	-0.301562	-0.153106	-0.480724	0.863402						
04536														7.579109	17.437216	4.786440	-0.362400	0.887257	0.285380	-0.913280	-0.276959	-0.298687	-0.185974	-0.368876	0.910683						
04537														7.164630	16.751051	4.786022	-0.354107	0.919637	0.169931	-0.909813	-0.296704	-0.290185	-0.216446	-0.257362	0.941762						
04538														6.951793	15.769571	4.653462	-0.337405	0.939627	0.057079	-0.909177	-0.309552	-0.278522	-0.244038	-0.145870	0.958732						
04539														6.463065	14.515371	3.929165	-0.316164	0.947426	-0.049243	-0.910548	-0.317612	-0.264624	-0.266351	-0.038827	0.963094						
04540														5.977409	13.296585	3.528054	-0.286096	0.947752	-0.141119	-0.916500	-0.313636	-0.248317	-0.279603	0.058293	0.958344						
04541														6.181275	12.370087	3.437356	-0.247250	0.944066	-0.218190	-0.925986	-0.296529	-0.233709	-0.285336	0.144256	0.947509						
04542														6.358954	11.627301	3.257436	-0.202564	0.937572	-0.282711	-0.935951	-0.270275	-0.225715	-0.288034	0.218882	0.932270						
04543														6.687778	10.711842	2.719667	-0.156813	0.929161	-0.334767	-0.944053	-0.240593	-0.225561	-0.290126	0.280667	0.914906						
04544														6.689253	9.812372	2.361641	-0.114130	0.920728	-0.373141	-0.949613	-0.211465	-0.231341	-0.291908	0.327937	0.898469						
04545														6.966097	9.069907	2.047078	-0.077699	0.913837	-0.398579	-0.952941	-0.185579	-0.239717	-0.293030	0.361196	0.885252						
04546														7.240714	8.700385	1.821481	-0.052755	0.908037	-0.415555	-0.954037	-0.168764	-0.247654	-0.295010	0.383389	0.875204						
04547														7.597952	8.518333	1.616315	-0.045144	0.902770	-0.427749	-0.953217	-0.167042	-0.251942	-0.298898	0.396364	0.868076						
04548														7.671298	8.509609	1.564638	-0.057903	0.898452	-0.435238	-0.950516	-0.182910	-0.251123	-0.305232	0.399160	0.864584						
04549														7.187192	8.434454	1.549727	-0.088096	0.895642	-0.435964	-0.945830	-0.212509	-0.245451	-0.312482	0.390725	0.865846						
04550														6.313861	8.638893	1.736157	-0.126147	0.895136	-0.427573	-0.939895	-0.245714	-0.237113	-0.317309	0.371963	0.872329						
04551														5.869315	9.098810	1.750641	-0.164839	0.897922	-0.408124	-0.933452	-0.275675	-0.229501	-0.318583	0.343133	0.883609						
04552														6.049343	9.864783	1.681315	-0.205205	0.902719	-0.378140	-0.925722	-0.304435	-0.224406	-0.317694	0.304003	0.898138						
04553														6.020097	10.841235	1.398904	-0.252596	0.906513	-0.338274	-0.915030	-0.337446	-0.221023	-0.314510	0.253701	0.914724						
04554														5.221255	12.071245	1.344466	-0.303301	0.908841	-0.286386	-0.901556	-0.371011	-0.222591	-0.308552	0.190681	0.931899						
04555														4.875485	12.824714	1.416592	-0.351340	0.909216	-0.223354	-0.887586	-0.399372	-0.229552	-0.297913	0.117595	0.947322						
04556														5.001245	13.460725	1.489101	-0.395482	0.905752	-0.152341	-0.874470	-0.422043	-0.239126	-0.280884	0.038647	0.958963						
04557														5.116752	14.013533	1.396680	-0.434481	0.897697	-0.073255	-0.863200	-0.438239	-0.250665	-0.257125	-0.045676	0.965298						
04558														5.271311	14.350115	1.305366	-0.468292	0.883457	0.014372	-0.854279	-0.448552	-0.262697	-0.225634	-0.135297	0.964771						
04559														5.235476	15.008502	1.565840	-0.495888	0.861602	0.108333	-0.848082	-0.453691	-0.273719	-0.186687	-0.227610	0.955689						
04560														5.437341	15.872240	2.193471	-0.516559	0.831394	0.204821	-0.844387	-0.454929	-0.282931	-0.142048	-0.319099	0.937016						
04561														5.656301	16.526864	2.391895	-0.528961	0.793483	0.300972	-0.843067	-0.450729	-0.293395	-0.097147	-0.408934	0.907378						
04562														6.326333	16.417251	2.340843	-0.530495	0.748907	0.397130	-0.846022	-0.438404	-0.303394	-0.053110	-0.496930	0.866164						
04563														7.332971	16.142368	2.368293	-0.522984	0.695499	0.492715	-0.852293	-0.420484	-0.311112	-0.009199	-0.582644	0.812675						
04564														7.155861	15.536111	2.359663	-0.506517	0.633041	0.585406	-0.861566	-0.398229	-0.314828	0.033826	-0.663832	0.747117						
04565														6.290759	14.264310	1.953452	-0.476805	0.564309	0.673953	-0.875948	-0.368971	-0.310767	0.073301	-0.738523	0.670232						
04566														5.984875	12.212343	1.622620	-0.438042	0.489188	0.754198	-0.892230	-0.339018	-0.298318	0.109753	-0.803593	0.584972						
04567														5.001536	10.365717	1.591560	-0.397102	0.408252	0.821974	-0.906353	-0.315302	-0.281264	0.144344	-0.856689	0.495227						
04568														3.602421	8.817508	1.343510	-0.356852	0.326622	0.875200	-0.918013	-0.296058	-0.263820	0.172940	-0.897590	0.405493						
04569														2.962671	7.373760	0.913629	-0.319980	0.250059	0.913829	-0.927753	-0.278233	-0.248720	0.192062	-0.927393	0.321022						
04570														1.926729	5.597896	0.768906	-0.287833	0.179411	0.940725	-0.935316	-0.263709	-0.235884	0.205758	-0.947771	0.243710						
04571														0.895459	4.405692	0.860596	-0.259474	0.116971	0.958640	-0.941517	-0.251608	-0.224139	0.214984	-0.960735	0.175416						
04572														0.269337	3.572163	0.877351	-0.238322	0.068193	0.968789	-0.946688	-0.238951	-0.216065	0.216758	-0.968634	0.121505						
04573														-0.268074	3.081781	0.907991	-0.226256	0.035021	0.973438	-0.951303	-0.222735	-0.213098	0.209356	-0.974250	0.083711						
04574														-0.844755	2.297904	0.627758	-0.220870	0.018764	0.975123	-0.955439	-0.204922	-0.212469	0.195837	-0.978599	0.063189						
04575														-1.197324	1.832423	0.411889	-0.217919	0.022081	0.975717	-0.959261	-0.189032	-0.209965	0.179806	-0.981723	0.062376						
04576														-1.089554	1.908704	0.404091	-0.217719	0.046181	0.974918	-0.962540	-0.175546	-0.206639	0.161600	-0.983388	0.082670						
04577														-0.751539	2.664866	0.534560	-0.223498	0.092118	0.970342	-0.964525	-0.164400	-0.206552	0.140498	-0.982083	0.125593						
04578														-0.099466	3.861156	0.685793	-0.236275	0.159823	0.958452	-0.964825	-0.155598	-0.211900	0.115267	-0.974806	0.190965						
04579														1.425625	5.939027	0.832965	-0.255557	0.247228	0.934649	-0.963045	-0.150156	-0.223602	0.085062	-0.957252	0.276465						
04580														3.320913	8.263841	1.080705	-0.274694	0.352555	0.894566	-0.960270	-0.148229	-0.236451	0.049238	-0.923977	0.379265						
04581														5.583572	10.006828	1.542105	-0.293206	0.465235	0.835217	-0.955932	-0.156373	-0.248479	0.015004	-0.871266	0.490582						
04582														7.440634	12.382300	2.337211	-0.318791	0.573700	0.754481	-0.947675	-0.178761	-0.264493	-0.016868	-0.799320	0.600668						
04583														7.041545	14.559356	3.324507	-0.347047	0.668944	0.657322	-0.936427	-0.208608	-0.282110	-0.051593	-0.713440	0.698814						
04584														7.349431	16.403596	3.902559	-0.368408	0.751127	0.547800	-0.925238	-0.238810	-0.294795	-0.090608	-0.615450	0.782950						
04585														7.233748	17.710861	4.150110	-0.379876	0.820065	0.428004	-0.915552	-0.267223	-0.300594	-0.132134	-0.506049	0.852324						
04586														6.380041	18.251749	4.114492	-0.372226	0.875693	0.307586	-0.911959	-0.283451	-0.296625	-0.172567	-0.390917	0.904104						
04587														6.268727	18.014868	3.691388	-0.343830	0.919469	0.190679	-0.915606	-0.283195	-0.285424	-0.208439	-0.272724	0.939242						
04588														6.777126	17.120555	3.517475	-0.304339	0.949608	0.074979	-0.922590	-0.274257	-0.271314	-0.237078	-0.151746	0.959566						
04589														7.521345	15.782216	3.343172	-0.265730	0.963232	-0.039641	-0.928897	-0.266827	-0.256813	-0.257948	-0.031421	0.965648						
04590														8.398314	13.985557	3.438431	-0.237645	0.959910	-0.148654	-0.932613	-0.268268	-0.241381	-0.271583	0.081273	0.958977						
04591														8.528465	12.497111	3.978955	-0.225454	0.942464	-0.246844	-0.934050	-0.281131	-0.220263	-0.276985	0.180905	0.943691						
04592														7.397123	11.900810	4.618310	-0.219948	0.917986	-0.330037	-0.935089	-0.294783	-0.196751	-0.277904	0.265339	0.923236						
04593														6.387663	11.191417	4.793975	-0.201755	0.896718	-0.393944	-0.939099	-0.291349	-0.182233	-0.278187	0.333186	0.900888						
04594														6.521084	10.397089	4.332400	-0.161906	0.885784	-0.434940	-0.946579	-0.263969	-0.185227	-0.278882	0.381716	0.881203						
04595														7.346422	9.738443	3.298719	-0.111021	0.885283	-0.451606	-0.952694	-0.224171	-0.205237	-0.282930	0.407457	0.868291						
04596														7.881191	9.581629	2.287308	-0.064978	0.891386	-0.448563	-0.953218	-0.188430	-0.236367	-0.295217	0.412219	0.861929						
04597														8.296024	9.450599	1.259752	-0.038442	0.899854	-0.434493	-0.947483	-0.170975	-0.270267	-0.317489	0.401285	0.859169						
04598														7.780291	8.735389	0.391183	-0.037870	0.908489	-0.416188	-0.938353	-0.175537	-0.297793	-0.343598	0.379254	0.859131						
04599														6.817727	7.964104	-0.153939	-0.054290	0.916606	-0.396088	-0.930257	-0.190582	-0.313528	-0.362869	0.351443	0.863026						
04600														6.669163	7.836994	-0.117214	-0.079107	0.923713	-0.374828	-0.926196	-0.207156	-0.315035	-0.368650	0.322243	0.871927						
04601														7.228647	8.653185	0.153598	-0.114764	0.928484	-0.353194	-0.924422	-0.229987	-0.304220	-0.363694	0.291586	0.884706						
04602														7.667155	9.747901	0.290454	-0.165380	0.930536	-0.326730	-0.920817	-0.264335	-0.286746	-0.353194	0.253437	0.900569						
04603														7.186993	11.495096	0.839689	-0.229160	0.929018	-0.290535	-0.912619	-0.308870	-0.267817	-0.338545	0.203774	0.918620						
04604														6.177139	12.977724	1.270299	-0.294722	0.924470	-0.241855	-0.900299	-0.353469	-0.254010	-0.320313	0.142880	0.936475						
04605														5.915361	13.534303	1.127782	-0.350032	0.919490	-0.178930	-0.887966	-0.386530	-0.249222	-0.298318	0.071648	0.951773						
04606														6.655068	13.940301	0.858461	-0.396607	0.912393	-0.101198	-0.877399	-0.409178	-0.250486	-0.269950	-0.010554	0.962816						
04607														7.042930	14.796549	0.765335	-0.442062	0.896929	-0.009959	-0.866195	-0.429746	-0.255000	-0.232997	-0.104099	0.966890						
04608														6.759962	16.060566	1.079615	-0.485474	0.869440	0.091596	-0.853988	-0.449185	-0.262560	-0.187137	-0.205688	0.960558						
04609														6.916852	17.536236	1.905041	-0.520036	0.830225	0.200721	-0.843821	-0.462938	-0.271394	-0.132397	-0.310507	0.941306						
04610														7.365789	18.990215	2.824736	-0.542708	0.779525	0.312744	-0.836732	-0.469353	-0.282112	-0.073126	-0.414787	0.906976						
04611														7.607261	19.240208	3.086273	-0.551073	0.718833	0.423791	-0.834308	-0.465020	-0.296120	-0.015789	-0.516756	0.855987						
04612														7.686367	18.462625	2.949329	-0.543203	0.648879	0.532810	-0.838712	-0.448574	-0.308778	0.038645	-0.614603	0.787889						
04613														7.708718	17.200694	2.881529	-0.521331	0.569844	0.635211	-0.848519	-0.425286	-0.314876	0.090716	-0.703143	0.705238						
04614														6.450380	15.571185	2.518319	-0.486500	0.483404	0.727762	-0.862603	-0.397991	-0.312280	0.138686	-0.779694	0.610609						
04615														4.928346	13.155099	1.943604	-0.438427	0.392995	0.808292	-0.880738	-0.367089	-0.299243	0.179114	-0.843090	0.507068						
04616														3.906305	10.753558	1.621143	-0.386288	0.299653	0.872347	-0.897550	-0.340073	-0.280633	0.212569	-0.891380	0.400320						
04617														2.737171	8.873432	1.268938	-0.339728	0.205493	0.917800	-0.910130	-0.317902	-0.265712	0.237169	-0.925587	0.295025						
04618														1.109685	7.108919	0.936166	-0.302505	0.115271	0.946152	-0.919504	-0.296702	-0.257838	0.251004	-0.947988	0.195746						
04619														-0.689350	5.437820	0.728465	-0.269941	0.035738	0.962214	-0.928154	-0.275599	-0.250150	0.256245	-0.960608	0.107566						
04620														-1.546033	4.078169	0.367404	-0.239416	-0.025895	0.970572	-0.936985	-0.255806	-0.237956	0.254440	-0.966381	0.036981						
04621														-1.682284	3.160575	0.115959	-0.214954	-0.066659	0.974347	-0.944871	-0.238137	-0.224743	0.247009	-0.968941	-0.011795						
04622														-1.805501	2.640505	-0.058008	-0.197981	-0.087283	0.976312	-0.951206	-0.223379	-0.212860	0.236667	-0.970816	-0.038800						
04623														-1.532419	2.400058	-0.192186	-0.187572	-0.088316	0.978273	-0.956108	-0.211834	-0.202446	0.225110	-0.973307	-0.044706						
04624														-0.824985	2.662691	-0.040574	-0.185630	-0.069996	0.980123	-0.959549	-0.201959	-0.196157	0.211675	-0.976889	-0.029675						
04625														0.050683	3.063923	0.135160	-0.194729	-0.032765	0.980310	-0.961273	-0.192345	-0.197376	0.195024	-0.980780	0.005959						
04626														1.269179	3.895800	0.354829	-0.214529	0.024026	0.976422	-0.961072	-0.183410	-0.206644	0.174121	-0.982743	0.062437						
04627														1.431877	5.025042	0.942763	-0.239000	0.098032	0.966058	-0.959585	-0.176075	-0.219531	0.148578	-0.979483	0.136152						
04628														2.213619	6.249334	1.514247	-0.266439	0.191006	0.944737	-0.956703	-0.171563	-0.235127	0.117171	-0.966480	0.228447						
04629														3.786984	7.999356	1.955877	-0.295676	0.302910	0.905992	-0.951748	-0.174986	-0.252104	0.082172	-0.936817	0.340033						
04630														5.973670	10.526900	2.590065	-0.323649	0.423141	0.846288	-0.945051	-0.188196	-0.267322	0.046153	-0.886304	0.460799						
04631														8.047731	13.165804	3.476380	-0.349488	0.534281	0.769676	-0.936918	-0.205064	-0.283080	0.006588	-0.820056	0.572245						
04632														8.774588	14.717758	3.873337	-0.375304	0.633081	0.677019	-0.926126	-0.226243	-0.301836	-0.037916	-0.740285	0.671223						
04633														9.110759	15.875199	4.188862	-0.399217	0.721097	0.566255	-0.913217	-0.257762	-0.315583	-0.081607	-0.643100	0.761422						
04634														9.340350	17.091619	4.439579	-0.422978	0.793044	0.438374	-0.897953	-0.301955	-0.320163	-0.121534	-0.529060	0.839836						
04635														8.477642	18.245536	4.994726	-0.438249	0.844168	0.308737	-0.884611	-0.344161	-0.314670	-0.159379	-0.411016	0.897588						
04636														7.546650	17.733646	5.038480	-0.436814	0.879938	0.186820	-0.877666	-0.371361	-0.302975	-0.197222	-0.296310	0.934507						
04637														7.447201	16.493740	4.875547	-0.419071	0.905089	0.072069	-0.877694	-0.383505	-0.287361	-0.232449	-0.183679	0.955107						
04638														7.559971	15.041042	4.532555	-0.392607	0.919062	-0.034426	-0.881012	-0.386568	-0.272734	-0.263967	-0.076748	0.961473						
04639														7.829086	13.585064	4.007049	-0.359865	0.924123	-0.128431	-0.886656	-0.381579	-0.261227	-0.290412	0.019868	0.956695						
04640														7.981246	12.064320	3.604510	-0.324126	0.922991	-0.207437	-0.893419	-0.370751	-0.253667	-0.311039	0.103108	0.944787						
04641														8.223735	10.661794	3.368553	-0.287888	0.918388	-0.271448	-0.900913	-0.355845	-0.248454	-0.324770	0.173024	0.929832						
04642														8.679062	9.456335	3.332951	-0.257156	0.911850	-0.320000	-0.907348	-0.341780	-0.244756	-0.332550	0.227411	0.915257						
04643														8.717322	8.484523	3.334471	-0.234690	0.905959	-0.352362	-0.911698	-0.330899	-0.243541	-0.337235	0.264091	0.903620						
04644														8.788144	7.977702	3.370829	-0.220773	0.902345	-0.370179	-0.913686	-0.324133	-0.245186	-0.341230	0.284096	0.896020						
04645														8.383414	7.673506	3.148712	-0.214165	0.902146	-0.374522	-0.913618	-0.320659	-0.249961	-0.345595	0.288637	0.892890						
04646														7.769524	7.394014	2.864536	-0.213003	0.905547	-0.366898	-0.912430	-0.318655	-0.256767	-0.349429	0.280077	0.894123						
04647														7.579307	7.438006	2.712337	-0.218000	0.910736	-0.350765	-0.910480	-0.319206	-0.262934	-0.351429	0.262045	0.898793						
04648														7.612725	8.252378	2.471204	-0.232682	0.914585	-0.330746	-0.906816	-0.326931	-0.266086	-0.351489	0.238012	0.905431						
04649														7.498671	9.043428	2.231412	-0.254898	0.917298	-0.305927	-0.902101	-0.339509	-0.266361	-0.348197	0.208083	0.914035						
04650														7.970786	10.155106	1.964127	-0.283686	0.919019	-0.273726	-0.896160	-0.355659	-0.265337	-0.341203	0.170030	0.924484						
04651														9.579993	11.621385	1.815030	-0.333040	0.913234	-0.234708	-0.882451	-0.389574	-0.263652	-0.332212	0.119311	0.935628						
04652														8.943619	12.623928	1.924962	-0.415166	0.889425	-0.191208	-0.851853	-0.453842	-0.261485	-0.319350	0.054321	0.946079						
04653														5.852695	13.005619	2.312767	-0.502270	0.853251	-0.140312	-0.812066	-0.521193	-0.262502	-0.297110	-0.017904	0.954675						
04654														4.409134	13.154711	2.736827	-0.565841	0.820918	-0.076926	-0.780602	-0.563410	-0.270609	-0.265489	-0.093073	0.959611						
04655														4.491014	13.576525	2.972372	-0.603388	0.797448	0.000563	-0.764431	-0.578205	-0.285174	-0.227085	-0.172501	0.958476						
04656														5.317788	14.299575	3.099289	-0.626298	0.774679	0.087306	-0.757749	-0.578608	-0.301711	-0.183213	-0.255117	0.949394						
04657														5.743654	15.180099	3.514714	-0.643029	0.745225	0.176502	-0.753859	-0.575318	-0.317342	-0.134946	-0.337118	0.931741						
04658														5.659581	16.413508	3.763332	-0.652913	0.708780	0.267087	-0.752531	-0.566971	-0.335024	-0.086028	-0.419733	0.903562						
04659														6.036588	17.018914	3.659844	-0.651438	0.667615	0.360442	-0.757640	-0.547304	-0.355584	-0.040122	-0.504726	0.862347						
04660														6.342179	17.099990	3.513598	-0.636758	0.621946	0.455765	-0.771055	-0.516441	-0.372508	0.003696	-0.588618	0.808403						
04661														6.357439	16.597743	3.019406	-0.606092	0.572842	0.551820	-0.794117	-0.475117	-0.379001	0.045072	-0.667919	0.742868						
04662														6.276361	15.179376	2.430288	-0.561207	0.519302	0.644494	-0.823517	-0.428305	-0.371987	0.082866	-0.739513	0.668022						
04663														5.496885	13.250268	1.780674	-0.507604	0.458997	0.729150	-0.853728	-0.382018	-0.353851	0.116132	-0.802112	0.585772						
04664														4.194198	10.778828	1.190285	-0.448989	0.392513	0.802709	-0.881787	-0.339849	-0.327040	0.144433	-0.854656	0.498701						
04665														2.843926	8.226651	0.883611	-0.390384	0.322263	0.862408	-0.905149	-0.305532	-0.295561	0.168245	-0.895989	0.410970						
04666														1.660873	6.215151	0.750417	-0.338688	0.252539	0.906374	-0.922191	-0.280238	-0.266517	0.186694	-0.926116	0.327803						
04667														0.602561	4.893114	0.581479	-0.298322	0.186996	0.935968	-0.933650	-0.260851	-0.245468	0.198247	-0.947095	0.252407						
04668														-0.551712	3.784337	0.394610	-0.267658	0.130747	0.954602	-0.941990	-0.243751	-0.230737	0.202517	-0.960984	0.188404						
04669														-1.310012	2.771943	-0.034029	-0.244460	0.089336	0.965535	-0.948624	-0.228315	-0.219053	0.200877	-0.969480	0.140560						
04670														-1.392995	2.051522	-0.296219	-0.228795	0.066924	0.971171	-0.953397	-0.216976	-0.209656	0.196690	-0.973880	0.113448						
04671														-1.066126	1.803951	-0.402746	-0.221743	0.065099	0.972930	-0.956091	-0.210593	-0.203814	0.191624	-0.975404	0.108938						
04672														-0.494180	2.227381	-0.334376	-0.223156	0.082054	0.971323	-0.957030	-0.207750	-0.202322	0.185191	-0.974734	0.124889						
04673														0.238611	2.997815	-0.098316	-0.231523	0.115736	0.965920	-0.956858	-0.206270	-0.204635	0.175557	-0.971626	0.158499						
04674														1.372109	4.039524	0.278245	-0.250383	0.165998	0.953810	-0.954675	-0.206114	-0.214739	0.160947	-0.964345	0.210081						
04675														2.132245	5.510944	0.949922	-0.280521	0.230208	0.931833	-0.949302	-0.210051	-0.233888	0.141889	-0.950202	0.277460						
04676														2.718217	7.560868	1.485997	-0.317959	0.307671	0.896795	-0.941088	-0.217278	-0.259119	0.115130	-0.926352	0.358631						
04677														3.640708	9.247327	1.843175	-0.354416	0.397511	0.846389	-0.931603	-0.228176	-0.282934	0.080656	-0.888775	0.451191						
04678														4.730678	10.756517	2.301336	-0.385696	0.494269	0.779062	-0.921618	-0.245862	-0.300287	0.043119	-0.833817	0.550355						
04679														5.447142	12.983679	3.153433	-0.407739	0.589763	0.697085	-0.913085	-0.267525	-0.307745	0.004991	-0.761978	0.647584						
04680														7.347837	15.378458	4.068964	-0.422682	0.678104	0.601261	-0.905553	-0.289482	-0.310118	-0.036238	-0.675556	0.736418						
04681														9.592911	16.704677	4.440737	-0.442356	0.751807	0.488987	-0.893377	-0.321519	-0.313854	-0.078739	-0.575684	0.813872						
04682														9.369323	17.557474	4.916300	-0.464077	0.804666	0.370331	-0.877723	-0.361418	-0.314611	-0.119313	-0.471052	0.873999						
04683														7.661238	17.543997	4.859287	-0.470096	0.843907	0.258516	-0.867939	-0.388813	-0.309042	-0.160288	-0.369655	0.915239						
04684														6.918406	16.603071	4.586912	-0.449411	0.879530	0.156385	-0.870646	-0.392044	-0.297114	-0.200011	-0.269682	0.941949						
04685														7.474129	15.064579	4.201660	-0.410277	0.909931	0.060813	-0.881478	-0.378584	-0.282261	-0.233816	-0.169411	0.957408						
04686														8.165356	13.365959	3.748259	-0.366188	0.930097	-0.028757	-0.893530	-0.360084	-0.268224	-0.259829	-0.072525	0.962927						
04687														8.575331	11.642131	3.385609	-0.325839	0.939125	-0.108962	-0.903304	-0.343266	-0.257316	-0.279055	0.014583	0.960165						
04688														8.502310	10.051440	3.181039	-0.293780	0.939393	-0.176734	-0.909930	-0.331470	-0.249309	-0.292781	0.087574	0.952161						
04689														8.383415	8.780567	3.182666	-0.271472	0.933820	-0.232988	-0.913728	-0.326109	-0.242394	-0.302332	0.147085	0.941786						
04690														8.110574	8.019540	3.204646	-0.258623	0.924634	-0.279582	-0.915258	-0.327108	-0.235167	-0.308897	0.195070	0.930876						
04691														7.692531	7.789928	3.227629	-0.250725	0.915296	-0.315230	-0.915890	-0.329738	-0.228950	-0.313500	0.231312	0.920984						
04692														7.505992	7.606688	3.175442	-0.244265	0.908862	-0.338090	-0.916817	-0.330023	-0.224792	-0.315882	0.255058	0.913873						
04693														7.493418	7.627187	3.083247	-0.238860	0.906650	-0.347751	-0.917978	-0.327603	-0.223589	-0.316641	0.265822	0.910537						
04694														7.535318	8.028574	2.970005	-0.237486	0.907547	-0.346350	-0.918509	-0.325836	-0.223990	-0.316135	0.264932	0.910972						
04695														7.282982	9.166468	2.682742	-0.241263	0.910686	-0.335325	-0.917936	-0.326283	-0.225682	-0.314936	0.253358	0.914672						
04696														7.208124	10.363551	2.315978	-0.251044	0.915107	-0.315524	-0.915741	-0.330157	-0.228944	-0.313680	0.231464	0.920885						
04697														7.058560	10.740518	2.042467	-0.269346	0.918917	-0.288173	-0.911721	-0.339689	-0.231032	-0.310189	0.200506	0.929290						
04698														6.699921	10.769930	1.915026	-0.294360	0.921702	-0.252620	-0.906855	-0.352802	-0.230530	-0.301605	0.161231	0.939701						
04699														6.673631	10.611296	1.934250	-0.324828	0.922589	-0.208127	-0.901091	-0.368736	-0.228186	-0.287266	0.113420	0.951112						
04700														6.179519	10.587390	2.238618	-0.361098	0.919589	-0.154805	-0.893724	-0.388659	-0.224057	-0.266207	0.057446	0.962203						
04701														5.491302	11.257850	2.372103	-0.397653	0.912832	-0.092785	-0.885073	-0.408278	-0.223506	-0.241906	-0.006757	0.970276						
04702														5.281217	12.418337	1.981140	-0.432140	0.901497	-0.023623	-0.874830	-0.425428	-0.231696	-0.218923	-0.079459	0.972501						
04703														5.098257	13.697827	1.392419	-0.463700	0.884578	0.050043	-0.863809	-0.438808	-0.247551	-0.197019	-0.158017	0.967582						
04704														5.323538	14.103844	1.157631	-0.491374	0.861767	0.126132	-0.853826	-0.448060	-0.264995	-0.171850	-0.237906	0.955965						
04705														5.635613	14.141325	0.919123	-0.512502	0.834289	0.203230	-0.847029	-0.452317	-0.279197	-0.141007	-0.315231	0.938481						
04706														6.240373	14.284083	1.079848	-0.524760	0.802848	0.282952	-0.844822	-0.450411	-0.288800	-0.104417	-0.390595	0.914622						
04707														6.999851	14.562039	1.627232	-0.529658	0.765305	0.365747	-0.845959	-0.445218	-0.293485	-0.061768	-0.464854	0.883230						
04708														7.157735	14.865728	2.147657	-0.529761	0.720215	0.447933	-0.847974	-0.439094	-0.296878	-0.017131	-0.537110	0.843338						
04709														7.098165	14.486102	2.209108	-0.524353	0.668593	0.527292	-0.851133	-0.429752	-0.301473	0.025042	-0.606874	0.794403						
04710														7.134274	13.488744	2.194756	-0.512569	0.611424	0.602855	-0.856277	-0.416105	-0.306017	0.063745	-0.673065	0.736831						
04711														6.731496	12.182833	2.170811	-0.492568	0.550727	0.673852	-0.864503	-0.398658	-0.306114	0.100051	-0.733329	0.672471						
04712														6.473630	10.779567	2.106080	-0.463613	0.487552	0.739835	-0.876001	-0.377544	-0.300139	0.132987	-0.787244	0.602130						
04713														6.471797	9.197713	1.772327	-0.430428	0.421507	0.798163	-0.888225	-0.355114	-0.291461	0.160585	-0.834401	0.527244						
04714														5.975018	7.783563	1.472824	-0.395053	0.353070	0.848101	-0.899831	-0.334669	-0.279824	0.185036	-0.873692	0.449915						
04715														5.415710	6.932584	1.267100	-0.356761	0.284642	0.889776	-0.911046	-0.316728	-0.263967	0.206681	-0.904800	0.372318						
04716														4.715593	6.137120	1.073160	-0.317625	0.215875	0.923316	-0.921532	-0.299657	-0.246950	0.223368	-0.929303	0.294114						
04717														3.723725	5.115023	0.737434	-0.282005	0.147037	0.948079	-0.930663	-0.282024	-0.233086	0.233109	-0.948073	0.216374						
04718														2.300741	4.042240	0.601562	-0.250420	0.082285	0.964634	-0.938626	-0.264771	-0.221083	0.237216	-0.960794	0.143539						
04719														0.868269	3.328696	0.427311	-0.223401	0.027609	0.974336	-0.946042	-0.246858	-0.209919	0.234726	-0.968658	0.081268						
04720														-0.224694	2.516161	0.326084	-0.202269	-0.011972	0.979257	-0.952699	-0.229195	-0.199586	0.226830	-0.973307	0.034953						
04721														-0.657625	1.963450	0.169843	-0.188474	-0.032618	0.981536	-0.957984	-0.213920	-0.191061	0.216202	-0.976307	0.009071						
04722														-0.611649	1.833227	0.223315	-0.184740	-0.030866	0.982303	-0.961215	-0.202593	-0.187140	0.204784	-0.978776	0.007759						
04723														-0.414201	2.166289	0.494334	-0.191603	-0.007016	0.981447	-0.962284	-0.195426	-0.189258	0.193129	-0.980693	0.030693						
04724														0.622086	2.964377	0.919189	-0.209102	0.038220	0.977147	-0.961255	-0.191579	-0.198208	0.179625	-0.980733	0.076799						
04725														1.255391	4.169130	1.399069	-0.236513	0.100868	0.966378	-0.958003	-0.190189	-0.214612	0.162147	-0.976552	0.141614						
04726														2.449186	5.047202	1.759833	-0.272505	0.179952	0.945176	-0.952198	-0.191395	-0.238090	0.138058	-0.964876	0.223506						
04727														3.934762	5.837529	2.063883	-0.317531	0.272252	0.908324	-0.941803	-0.202039	-0.268677	0.110369	-0.940776	0.320561						
04728														4.520310	7.420012	2.755406	-0.361071	0.369617	0.856161	-0.929013	-0.222324	-0.295815	0.081007	-0.902195	0.423654						
04729														5.092979	9.669080	3.470366	-0.392024	0.467836	0.792115	-0.918762	-0.242937	-0.311220	0.046834	-0.849771	0.525067						
04730														8.077719	12.262689	3.941150	-0.419937	0.563238	0.711629	-0.907537	-0.265325	-0.325545	0.005454	-0.782538	0.622579						
04731														9.227077	14.724624	4.283801	-0.457306	0.644534	0.612737	-0.888321	-0.298600	-0.348888	-0.041907	-0.703857	0.709105						
04732														7.114136	16.208849	4.498201	-0.487143	0.708994	0.509921	-0.868526	-0.332197	-0.367842	-0.091404	-0.622071	0.777607						
04733														5.382177	16.550749	4.337159	-0.485715	0.770630	0.412565	-0.862788	-0.346918	-0.367757	-0.140278	-0.534581	0.833393						
04734														6.465623	16.777272	4.026706	-0.454040	0.834428	0.312374	-0.871582	-0.343201	-0.350082	-0.184911	-0.431211	0.883099						
04735														7.900244	16.905097	3.906443	-0.410773	0.888261	0.205569	-0.884479	-0.333511	-0.326292	-0.221273	-0.315853	0.922646						
04736														9.238306	16.161330	3.921460	-0.376437	0.921432	0.096220	-0.892109	-0.332514	-0.305902	-0.249874	-0.200992	0.947188						
04737														9.860159	14.666691	4.181331	-0.362028	0.932127	-0.008682	-0.891179	-0.348825	-0.290037	-0.273379	-0.097264	0.956976						
04738														8.697377	12.913545	4.444439	-0.359236	0.927822	-0.100481	-0.886104	-0.372894	-0.275264	-0.292864	-0.009848	0.956103						
04739														7.822346	11.233208	4.854576	-0.350028	0.920209	-0.175203	-0.884992	-0.386161	-0.260133	-0.307034	0.063999	0.949544						
04740														8.267055	10.078370	4.998923	-0.329195	0.915243	-0.232296	-0.889938	-0.382960	-0.247693	-0.315660	0.125190	0.940578						
04741														8.740134	9.043559	4.614234	-0.300424	0.915120	-0.268886	-0.897559	-0.366618	-0.244905	-0.322696	0.167766	0.931516						
04742														8.755070	7.566628	3.976156	-0.269524	0.919433	-0.286355	-0.905159	-0.343375	-0.250559	-0.328699	0.191665	0.924782						
04743														8.697134	6.472440	3.478333	-0.244611	0.925080	-0.290505	-0.910868	-0.321940	-0.258213	-0.332393	0.201450	0.921375						
04744														8.754281	6.024912	3.063974	-0.233037	0.929466	-0.285983	-0.913154	-0.310281	-0.264340	-0.334430	0.199545	0.921053						
04745														8.360573	6.330781	2.783286	-0.237294	0.931913	-0.274281	-0.911683	-0.311134	-0.268385	-0.335449	0.186371	0.923439						
04746														7.518112	7.284850	2.707784	-0.251412	0.933558	-0.255464	-0.907926	-0.318927	-0.271947	-0.335353	0.163571	0.927784						
04747														6.963226	8.695478	2.496613	-0.267614	0.935207	-0.231886	-0.903673	-0.327113	-0.276354	-0.334301	0.135593	0.932661						
04748														6.883972	10.431674	2.095865	-0.283367	0.936652	-0.205880	-0.899509	-0.334030	-0.281616	-0.332546	0.105390	0.937180						
04749														7.626600	10.427244	1.898260	-0.304749	0.935132	-0.180708	-0.895162	-0.346022	-0.280986	-0.325288	0.076132	0.942545						
04750														7.841656	10.309205	1.858889	-0.337055	0.928611	-0.155161	-0.889120	-0.368153	-0.271900	-0.309612	0.046312	0.949734						
04751														7.628375	10.906597	1.687109	-0.375737	0.918784	-0.121065	-0.880097	-0.394690	-0.263911	-0.290260	0.007388	0.956919						
04752														7.711945	11.519301	1.908765	-0.420928	0.904088	-0.073784	-0.866948	-0.424897	-0.260508	-0.266873	-0.045689	0.962648						
04753														6.665408	13.063495	2.334875	-0.470348	0.882322	-0.016771	-0.849433	-0.457804	-0.262447	-0.239241	-0.109195	0.964801						
04754														5.857558	14.540116	2.245203	-0.511491	0.857937	0.048170	-0.833123	-0.481408	-0.272311	-0.210437	-0.179416	0.961003						
04755														5.720220	15.648771	1.872601	-0.536584	0.834802	0.123224	-0.824728	-0.487898	-0.285970	-0.178608	-0.255073	0.950283						
04756														6.034871	16.173489	1.692636	-0.543296	0.812418	0.211676	-0.827651	-0.476015	-0.297327	-0.140793	-0.336731	0.931015						
04757														6.573840	16.018840	1.786827	-0.536856	0.785213	0.308587	-0.838095	-0.454356	-0.301924	-0.096866	-0.420715	0.902007						
04758														6.929828	15.762681	2.052465	-0.524608	0.747964	0.406615	-0.849917	-0.432494	-0.300980	-0.049264	-0.503486	0.862598						
04759														6.848885	14.836173	1.861141	-0.508780	0.699810	0.501408	-0.860892	-0.411723	-0.298912	-0.002740	-0.583738	0.811937						
04760														6.560653	13.322876	1.575197	-0.488919	0.641904	0.590692	-0.871303	-0.392183	-0.294998	0.042299	-0.658902	0.751039						
04761														6.030404	11.947765	1.363619	-0.464850	0.575092	0.673189	-0.881165	-0.374682	-0.288378	0.086388	-0.727243	0.680922						
04762														5.243089	10.116096	1.097496	-0.436714	0.501943	0.746548	-0.890452	-0.359239	-0.279360	0.127966	-0.786766	0.603841						
04763														4.503005	8.270879	1.157985	-0.407087	0.424999	0.808490	-0.897962	-0.348217	-0.269090	0.167167	-0.835536	0.523388						
04764														3.953225	7.061926	1.225723	-0.379116	0.348666	0.857148	-0.903175	-0.340991	-0.260767	0.201359	-0.873016	0.444182						
04765														3.393517	6.038676	1.321555	-0.353932	0.275664	0.893724	-0.907186	-0.333602	-0.256365	0.227478	-0.901509	0.368151						
04766														2.518283	5.030802	1.300572	-0.328802	0.207719	0.921272	-0.911966	-0.323290	-0.252588	0.245371	-0.923221	0.295731						
04767														1.842670	4.287512	1.311916	-0.303645	0.148238	0.941183	-0.918184	-0.309320	-0.247507	0.254437	-0.939333	0.230033						
04768														1.405713	3.928212	1.236197	-0.281991	0.101269	0.954057	-0.925301	-0.291528	-0.242548	0.253572	-0.951187	0.175913						
04769														1.142080	3.626102	1.052521	-0.265974	0.070821	0.961375	-0.932545	-0.271510	-0.237996	0.244168	-0.959826	0.138258						
04770														1.054492	3.362037	0.872017	-0.255426	0.059616	0.964989	-0.939094	-0.252648	-0.232964	0.229914	-0.965720	0.120518						
04771														1.209177	3.334564	0.855295	-0.247664	0.065071	0.966658	-0.944928	-0.236552	-0.226173	0.213948	-0.969437	0.120073						
04772														1.421598	3.436257	0.943617	-0.242389	0.084562	0.966487	-0.950100	-0.222314	-0.218828	0.196359	-0.971301	0.134229						
04773														1.868594	3.675137	1.223374	-0.241927	0.115693	0.963372	-0.953993	-0.209594	-0.214401	0.177112	-0.970920	0.161077						
04774														1.710563	4.745373	1.612175	-0.251138	0.159316	0.954750	-0.955809	-0.196557	-0.218617	0.152834	-0.967463	0.201638						
04775														2.070828	5.556472	1.498546	-0.267225	0.220708	0.938019	-0.955933	-0.183532	-0.229144	0.121583	-0.957916	0.260027						
04776														3.609007	6.428549	1.479691	-0.286656	0.300296	0.909753	-0.954112	-0.175319	-0.242763	0.086596	-0.937596	0.336772						
04777														4.861936	8.014140	2.026344	-0.302093	0.390149	0.869784	-0.951875	-0.172943	-0.253030	0.051704	-0.904364	0.423618						
04778														6.876688	9.978489	2.683341	-0.317060	0.482803	0.816318	-0.948305	-0.173920	-0.265461	0.013808	-0.858285	0.512987						
04779														8.486986	11.623615	3.041990	-0.339167	0.573184	0.745940	-0.940338	-0.183781	-0.286338	-0.027035	-0.798552	0.601318						
04780														9.205130	12.673722	3.342175	-0.366367	0.653856	0.662003	-0.928101	-0.206059	-0.310108	-0.066354	-0.728019	0.682338						
04781														8.902671	13.234609	3.711214	-0.388985	0.720998	0.573457	-0.915542	-0.233400	-0.327577	-0.102337	-0.652447	0.750893						
04782														7.893209	13.215014	3.865194	-0.394725	0.779013	0.487166	-0.908687	-0.252540	-0.332433	-0.135941	-0.573901	0.807563						
04783														7.603695	13.024203	4.009987	-0.383801	0.832219	0.400136	-0.907921	-0.261045	-0.327924	-0.168451	-0.489150	0.855779						
04784														8.059466	12.757532	3.972197	-0.367226	0.877633	0.308068	-0.908630	-0.267684	-0.320526	-0.198840	-0.397625	0.895744						
04785														7.976465	12.347901	3.991367	-0.352510	0.910970	0.214175	-0.907993	-0.277569	-0.313853	-0.226462	-0.305106	0.925000						
04786														7.514505	11.880926	3.962947	-0.336952	0.933373	0.123603	-0.907129	-0.286676	-0.308112	-0.252150	-0.215943	0.943286						
04787														7.648980	11.375038	3.956880	-0.318098	0.947254	0.039039	-0.907339	-0.292239	-0.302213	-0.274864	-0.131555	0.952441						
04788														8.228839	11.077063	3.933012	-0.299099	0.953447	-0.038452	-0.907936	-0.296757	-0.295953	-0.293586	-0.053608	0.954428						
04789														8.737898	10.762353	3.750364	-0.282656	0.953330	-0.106150	-0.908315	-0.301583	-0.289847	-0.308333	0.014491	0.951168						
04790														8.701666	10.082719	3.535965	-0.266802	0.950755	-0.157740	-0.909310	-0.302568	-0.285670	-0.319329	0.067217	0.945257						
04791														8.992201	8.896187	3.424712	-0.250511	0.948708	-0.192865	-0.911674	-0.298205	-0.282708	-0.325720	0.105008	0.939617						
04792														9.100153	7.886745	3.491857	-0.237362	0.947668	-0.213504	-0.914989	-0.291926	-0.278522	-0.326274	0.129243	0.936398						
04793														9.001589	7.400547	3.571642	-0.229347	0.948067	-0.220382	-0.918244	-0.285844	-0.274081	-0.322842	0.139505	0.936115						
04794														9.051734	7.194546	3.627086	-0.232699	0.947945	-0.217374	-0.918656	-0.287614	-0.270830	-0.319252	0.136670	0.937763						
04795														8.593090	7.296109	3.748198	-0.251337	0.945430	-0.207343	-0.914807	-0.302010	-0.268177	-0.316162	0.122276	0.940792						
04796														7.489641	7.816063	3.820373	-0.275877	0.941688	-0.192655	-0.909017	-0.320746	-0.266100	-0.312377	0.101716	0.944497						
04797														7.186056	8.448917	3.779245	-0.295695	0.939636	-0.172188	-0.904617	-0.333348	-0.265607	-0.306972	0.077226	0.948580						
04798														7.761284	9.321868	3.649199	-0.310156	0.939617	-0.144649	-0.902119	-0.338894	-0.267079	-0.299973	0.047654	0.952757						
04799														8.303272	10.422600	3.267286	-0.325117	0.939193	-0.110523	-0.899441	-0.343199	-0.270591	-0.292068	0.011435	0.956329						
04800														8.748454	10.785583	2.746322	-0.344772	0.936162	-0.068793	-0.895408	-0.349988	-0.275231	-0.281738	-0.033295	0.958914						
04801														8.542813	10.759735	2.352467	-0.370845	0.928531	-0.017420	-0.889932	-0.360666	-0.279181	-0.265511	-0.088030	0.960081						
04802														7.764888	11.261161	1.957526	-0.397583	0.916458	0.045077	-0.884655	-0.369821	-0.283934	-0.243543	-0.152765	0.957784						
04803														7.408256	12.195624	1.658358	-0.419951	0.899925	0.117374	-0.881310	-0.373512	-0.289452	-0.216644	-0.224999	0.949969						
04804														7.691864	13.184336	1.537796	-0.439857	0.876505	0.195616	-0.878813	-0.375229	-0.294772	-0.184969	-0.301568	0.935331						
04805														8.003235	13.612878	1.628760	-0.461592	0.843058	0.276018	-0.874662	-0.380627	-0.300150	-0.147984	-0.379969	0.913085						
04806														7.595185	13.925714	1.933529	-0.481484	0.799798	0.358464	-0.870128	-0.387147	-0.304950	-0.105120	-0.458738	0.882332						
04807														7.049885	14.116648	2.105592	-0.490612	0.750162	0.443347	-0.869289	-0.386138	-0.308601	-0.060308	-0.536800	0.841552						
04808														7.036358	14.052366	2.212356	-0.485815	0.697001	0.527422	-0.873898	-0.375663	-0.308511	-0.016900	-0.610792	0.791610						
04809														7.446921	14.001149	2.251853	-0.473328	0.639403	0.605908	-0.880545	-0.362591	-0.305234	0.024529	-0.678005	0.734648						
04810														7.158346	13.297106	1.997980	-0.456735	0.576078	0.677884	-0.887407	-0.348544	-0.301705	0.062467	-0.739358	0.670408						
04811														6.135974	12.071116	1.624807	-0.431273	0.510464	0.743928	-0.897147	-0.329966	-0.293683	0.095556	-0.794071	0.600267						
04812														5.323587	10.181951	1.155396	-0.393945	0.446287	0.803514	-0.910757	-0.307294	-0.275847	0.123809	-0.840475	0.527516						
04813														4.636770	8.364244	0.557764	-0.345884	0.387454	0.854543	-0.926438	-0.285253	-0.245649	0.148583	-0.876647	0.457616						
04814														3.999344	6.838444	0.078310	-0.283031	0.338852	0.897258	-0.943195	-0.268053	-0.196290	0.174000	-0.901846	0.395471						
04815														3.749446	5.680390	-0.096785	-0.211918	0.294594	0.931829	-0.956410	-0.258548	-0.135770	0.200925	-0.919982	0.336544						
04816														3.346917	4.828373	0.050730	-0.149652	0.250131	0.956577	-0.963155	-0.255537	-0.083862	0.223464	-0.933882	0.279157						
04817														2.248147	4.007858	0.250236	-0.108681	0.206311	0.972432	-0.965455	-0.254952	-0.053810	0.236821	-0.944688	0.226893						
04818														0.893193	3.241376	0.378547	-0.087834	0.167836	0.981894	-0.966505	-0.252985	-0.043214	0.241152	-0.952801	0.184434						
04819														-0.197569	2.789882	0.558844	-0.078838	0.141932	0.986732	-0.967596	-0.249071	-0.041483	0.239879	-0.958029	0.156969						
04820														-0.517527	2.682649	0.699063	-0.075571	0.134227	0.988065	-0.968989	-0.243678	-0.041009	0.235266	-0.960523	0.148479						
04821														0.130379	2.885582	0.843168	-0.080547	0.143554	0.986359	-0.970633	-0.236346	-0.044865	0.226681	-0.961006	0.158375						
04822														1.127107	3.696955	0.945170	-0.097620	0.169176	0.980739	-0.972577	-0.225245	-0.057953	0.211102	-0.959502	0.186525						
04823														2.085804	4.631459	0.778416	-0.121274	0.214051	0.969265	-0.974586	-0.210962	-0.075351	0.188350	-0.953770	0.234195						
04824														3.758436	5.659091	0.560427	-0.141027	0.281105	0.949258	-0.976541	-0.197102	-0.086712	0.162726	-0.939218	0.302307						
04825														6.206714	6.760113	0.604875	-0.156518	0.363252	0.918450	-0.978131	-0.185972	-0.093135	0.136974	-0.912941	0.384416						
04826														7.731081	7.730367	1.163557	-0.177333	0.446155	0.877211	-0.978259	-0.177300	-0.107585	0.107529	-0.877217	0.467896						
04827														7.585841	8.653743	1.862820	-0.210494	0.520556	0.827474	-0.975141	-0.171743	-0.140016	0.069227	-0.836377	0.543766						
04828														7.182966	9.507009	2.271105	-0.252967	0.588736	0.767723	-0.967214	-0.172315	-0.186559	0.022456	-0.789746	0.613023						
04829														6.715913	10.269631	2.736198	-0.294475	0.654899	0.695982	-0.955358	-0.183459	-0.231590	-0.023984	-0.733110	0.679687						
04830														6.973757	11.472257	3.470328	-0.328828	0.717191	0.614418	-0.942168	-0.204530	-0.265495	-0.064744	-0.666187	0.742969						
04831														6.843270	12.574192	4.173055	-0.353239	0.772607	0.527541	-0.929863	-0.227962	-0.288771	-0.102847	-0.592546	0.798944						
04832														7.260902	13.194936	4.517506	-0.368947	0.822271	0.433299	-0.918524	-0.251293	-0.305231	-0.142098	-0.510609	0.847989						
04833														7.567385	13.149963	4.699919	-0.376918	0.864516	0.332484	-0.908650	-0.275477	-0.313795	-0.179689	-0.420387	0.889374						
04834														7.465367	13.053288	4.501332	-0.375086	0.897701	0.231178	-0.901958	-0.295863	-0.314542	-0.213968	-0.326493	0.920663						
04835														7.414160	12.496863	3.557656	-0.358048	0.923533	0.137435	-0.901052	-0.303178	-0.310142	-0.244759	-0.234882	0.940704						
04836														8.110864	11.412280	2.931935	-0.330747	0.942119	0.054932	-0.904887	-0.300074	-0.301885	-0.267928	-0.149555	0.951760						
04837														9.282579	10.621543	3.326301	-0.313130	0.949513	-0.019350	-0.907651	-0.305196	-0.288141	-0.279499	-0.072663	0.957392						
04838														8.879625	10.585633	3.929676	-0.313894	0.945526	-0.086316	-0.904757	-0.325443	-0.274776	-0.287899	-0.008156	0.957626						
04839														8.169659	9.985994	3.940907	-0.320860	0.936183	-0.143561	-0.898302	-0.348842	-0.267140	-0.300172	0.043247	0.952904						
04840														8.315476	8.928218	4.035750	-0.325649	0.926779	-0.187174	-0.892626	-0.366625	-0.262308	-0.311724	0.081656	0.946657						
04841														7.700160	8.418200	4.248621	-0.325317	0.920822	-0.215071	-0.890592	-0.374807	-0.257615	-0.317827	0.107734	0.942008						
04842														7.406828	7.989404	4.202866	-0.315485	0.920862	-0.229090	-0.893174	-0.369699	-0.256051	-0.320482	0.123837	0.939125						
04843														8.172664	7.560800	3.977202	-0.303156	0.924223	-0.232183	-0.897329	-0.358877	-0.256919	-0.320776	0.130458	0.938128						
04844														8.311323	7.564995	3.666111	-0.298394	0.927729	-0.224230	-0.899279	-0.351991	-0.259615	-0.319780	0.124178	0.939319						
04845														7.432723	7.635681	3.266257	-0.299798	0.931627	-0.205408	-0.899640	-0.347728	-0.264069	-0.317440	0.105626	0.942377						
04846														6.882683	8.111030	2.881856	-0.303678	0.935946	-0.178282	-0.899870	-0.343235	-0.269116	-0.313071	0.078706	0.946463						
04847														6.633027	9.083228	2.344644	-0.309578	0.939714	-0.145257	-0.899803	-0.338903	-0.274773	-0.307436	0.045639	0.950474						
04848														6.800482	10.297275	1.968014	-0.319638	0.941205	-0.109383	-0.898881	-0.337714	-0.279218	-0.299742	0.009074	0.953977						
04849														7.586464	11.100844	1.758888	-0.339091	0.937885	-0.073410	-0.895571	-0.345714	-0.280061	-0.288044	-0.029222	0.957171						
04850														7.954590	11.457149	1.350141	-0.371095	0.927914	-0.035545	-0.887916	-0.365784	-0.278939	-0.271833	-0.071952	0.959651						
04851														7.788798	11.475937	1.024229	-0.409351	0.912318	0.010418	-0.877601	-0.390600	-0.277937	-0.249497	-0.122917	0.960543						
04852														7.132318	11.879173	1.123759	-0.447078	0.891919	0.067832	-0.867334	-0.413709	-0.276724	-0.218753	-0.182550	0.958552						
04853														6.819576	12.671921	1.351000	-0.483309	0.865493	0.131662	-0.856388	-0.436195	-0.276287	-0.181694	-0.246285	0.952014						
04854														6.621683	13.407909	1.588256	-0.519339	0.831589	0.196840	-0.842979	-0.460715	-0.277720	-0.140262	-0.310163	0.940280						
04855														6.402171	13.697794	1.785960	-0.551189	0.791469	0.264134	-0.828955	-0.483405	-0.281341	-0.094989	-0.374027	0.922540						
04856														6.168117	13.701952	1.818745	-0.572274	0.748710	0.334569	-0.818635	-0.497507	-0.286921	-0.048371	-0.438087	0.897630						
04857														6.248950	13.598617	1.843491	-0.578620	0.706616	0.407299	-0.815596	-0.500517	-0.290320	-0.001285	-0.500177	0.865923						
04858														6.884857	13.464620	2.042987	-0.574818	0.663040	0.479544	-0.816982	-0.498039	-0.290685	0.046096	-0.558870	0.827973						
04859														7.069931	13.296962	1.995614	-0.565334	0.614997	0.549705	-0.819941	-0.491671	-0.293183	0.089968	-0.616472	0.782220						
04860														6.675965	12.433710	1.490077	-0.546823	0.563301	0.619416	-0.827216	-0.477680	-0.295864	0.129222	-0.674176	0.727178						
04861														6.003663	11.007515	1.187038	-0.514714	0.510475	0.688828	-0.840894	-0.457289	-0.289456	0.167234	-0.728218	0.664628						
04862														5.601030	9.676251	0.999225	-0.471778	0.457582	0.753687	-0.857837	-0.435799	-0.272387	0.203816	-0.775047	0.598131						
04863														5.655732	8.173720	0.555671	-0.426431	0.403541	0.809513	-0.872832	-0.418394	-0.251218	0.237318	-0.813696	0.530640						
04864														5.749675	6.893318	0.474620	-0.387277	0.343270	0.855676	-0.881206	-0.410720	-0.234064	0.271096	-0.844674	0.461554						
04865														5.022441	6.317409	0.641519	-0.354860	0.276858	0.892986	-0.884333	-0.409325	-0.224517	0.303362	-0.869369	0.390088						
04866														3.848955	5.694754	0.760826	-0.326483	0.210986	0.921354	-0.886937	-0.405332	-0.221468	0.326728	-0.889489	0.319465						
04867														2.783410	4.722279	0.720965	-0.300881	0.149717	0.941836	-0.891414	-0.395111	-0.221965	0.338898	-0.906351	0.252341						
04868														1.565384	3.850340	0.858664	-0.275743	0.096871	0.956338	-0.898317	-0.379996	-0.220522	0.342042	-0.919902	0.191802						
04869														0.707255	3.234662	0.846931	-0.252286	0.057718	0.965930	-0.906777	-0.362569	-0.215171	0.337797	-0.930168	0.143808						
04870														0.530931	3.016000	0.908523	-0.235873	0.036753	0.971089	-0.915377	-0.343900	-0.209326	0.326264	-0.938287	0.114760						
04871														0.495451	3.056325	0.999455	-0.231051	0.035404	0.972297	-0.922791	-0.324676	-0.207464	0.308337	-0.945162	0.107687						
04872														0.886169	3.185065	1.082713	-0.236919	0.053058	0.970079	-0.928959	-0.304708	-0.210211	0.284438	-0.950967	0.121480						
04873														1.777167	3.575318	1.143283	-0.252382	0.088634	0.963560	-0.933482	-0.284504	-0.218334	0.254785	-0.954569	0.154542						
04874														2.247936	4.468213	1.424466	-0.275858	0.138678	0.951142	-0.935539	-0.265851	-0.232571	0.220609	-0.953987	0.203076						
04875														2.662337	6.044297	1.551864	-0.302865	0.203778	0.930993	-0.936196	-0.246431	-0.250618	0.178355	-0.947495	0.265412						
04876														3.866969	6.865126	1.356851	-0.330127	0.288487	0.898772	-0.935349	-0.228119	-0.270340	0.127038	-0.929912	0.345144						
04877														5.860474	7.368223	1.489798	-0.355565	0.389489	0.849630	-0.931633	-0.220694	-0.288711	0.075058	-0.894199	0.441332						
04878														7.141067	8.305189	2.175663	-0.379355	0.491156	0.784127	-0.924756	-0.228974	-0.303968	0.030249	-0.840438	0.541062						
04879														8.876371	9.855115	2.803049	-0.405565	0.580465	0.706100	-0.914015	-0.249373	-0.319983	-0.009656	-0.775160	0.631691						
04880														9.496059	11.000701	3.187738	-0.441338	0.652139	0.616389	-0.896070	-0.283736	-0.341398	-0.047747	-0.702999	0.709586						
04881														8.341108	11.915887	3.533638	-0.481939	0.706105	0.518797	-0.872245	-0.330392	-0.360597	-0.083213	-0.626304	0.775125						
04882														6.893089	12.721510	3.684580	-0.513858	0.748322	0.419480	-0.850073	-0.378362	-0.366358	-0.115438	-0.544845	0.830553						
04883														6.255754	13.135256	3.683195	-0.529291	0.784998	0.321916	-0.835567	-0.416437	-0.358341	-0.147239	-0.458648	0.876335						
04884														5.572558	13.023794	3.783824	-0.523047	0.820101	0.232070	-0.833251	-0.434783	-0.341550	-0.179205	-0.372019	0.910762						
04885														5.851781	12.582203	3.573616	-0.495276	0.855318	0.152094	-0.843542	-0.431628	-0.319585	-0.207699	-0.286581	0.935271						
04886														6.185097	12.088207	3.399582	-0.454135	0.887516	0.077956	-0.860560	-0.414319	-0.296271	-0.230646	-0.201633	0.951917						
04887														6.463158	11.746241	3.182128	-0.408240	0.912841	0.007837	-0.878316	-0.390431	-0.275908	-0.248800	-0.119520	0.961152						
04888														6.674258	11.563912	2.986636	-0.364112	0.929551	-0.057934	-0.893064	-0.366119	-0.261521	-0.264308	-0.043484	0.963458						
04889														6.708074	11.266618	2.915220	-0.324877	0.938481	-0.117083	-0.904039	-0.344520	-0.253020	-0.277792	0.023647	0.960350						
04890														6.682855	10.811086	2.835263	-0.290976	0.941668	-0.169096	-0.912269	-0.326340	-0.247524	-0.288268	0.082237	0.954012						
04891														6.734859	10.123585	2.829242	-0.262438	0.941058	-0.213390	-0.919395	-0.311002	-0.240814	-0.292984	0.132991	0.946823						
04892														6.863832	9.467532	2.875081	-0.239577	0.938322	-0.249309	-0.926174	-0.297905	-0.231203	-0.291214	0.175512	0.940420						
04893														7.119674	9.142055	3.042972	-0.224856	0.934347	-0.276470	-0.931611	-0.289300	-0.220015	-0.285554	0.208091	0.935498						
04894														7.032268	9.067691	3.286580	-0.221260	0.929691	-0.294480	-0.934349	-0.288590	-0.209063	-0.279348	0.228890	0.932510						
04895														6.465600	9.230049	3.461452	-0.226685	0.925563	-0.303228	-0.934508	-0.294412	-0.200039	-0.274423	0.238023	0.931685						
04896														5.758976	9.338298	3.325395	-0.236034	0.923493	-0.302404	-0.933111	-0.302271	-0.194771	-0.271278	0.236204	0.933068						
04897														5.443147	9.566532	3.080816	-0.245820	0.924152	-0.292430	-0.931068	-0.309029	-0.193941	-0.269601	0.224598	0.936414						
04898														5.367244	9.716371	2.802370	-0.256369	0.927006	-0.273741	-0.928788	-0.314676	-0.195786	-0.267635	0.204054	0.941665						
04899														5.133065	9.763754	2.510644	-0.267122	0.931738	-0.245988	-0.926772	-0.318338	-0.199386	-0.264083	0.174715	0.948544						
04900														5.058825	9.923058	2.310830	-0.278002	0.937466	-0.209458	-0.925147	-0.319983	-0.204239	-0.258490	0.137001	0.956250						
04901														4.791749	9.879522	2.198632	-0.291122	0.942159	-0.166084	-0.923043	-0.322253	-0.210106	-0.251474	0.092136	0.963469						
04902														4.763371	9.328063	2.132169	-0.307950	0.943827	-0.119821	-0.920097	-0.327487	-0.214879	-0.242048	0.044075	0.969263						
04903														5.286863	8.731273	2.036778	-0.333710	0.939644	-0.075542	-0.914514	-0.342140	-0.215878	-0.228694	-0.002957	0.973494						
04904														5.021907	9.451847	2.308509	-0.367167	0.929520	-0.034370	-0.905927	-0.365738	-0.213383	-0.210914	-0.047210	0.976364						
04905														4.710097	11.263038	2.426747	-0.401360	0.915903	0.005603	-0.895219	-0.390988	-0.213803	-0.193632	-0.090828	0.976861						
04906														4.457047	12.508841	2.355395	-0.428895	0.902296	0.043723	-0.885272	-0.410181	-0.219190	-0.179840	-0.132716	0.974702						
04907														5.543537	12.220939	1.748127	-0.448186	0.890482	0.078552	-0.877448	-0.421415	-0.229117	-0.170921	-0.171612	0.970224						
04908														6.574244	11.814133	0.699028	-0.463547	0.878567	0.115081	-0.870036	-0.426705	-0.246903	-0.167816	-0.214576	0.962182						
04909														6.470348	11.682220	0.068768	-0.478661	0.862796	0.162683	-0.863030	-0.428284	-0.267867	-0.161440	-0.268618	0.949622						
04910														6.107922	12.197742	0.353823	-0.498016	0.836868	0.227228	-0.856249	-0.433111	-0.281519	-0.137180	-0.334765	0.932263						
04911														5.786101	13.461614	1.038472	-0.521287	0.799184	0.299273	-0.847925	-0.445463	-0.287378	-0.096353	-0.403567	0.909862						
04912														5.607991	14.433438	1.443010	-0.542174	0.756842	0.365017	-0.838457	-0.458806	-0.294085	-0.055103	-0.465496	0.883333						
04913														6.521862	14.042128	1.443624	-0.557189	0.714443	0.423215	-0.830143	-0.466934	-0.304688	-0.020069	-0.521098	0.853261						
04914														7.244807	13.064831	1.467795	-0.565084	0.668297	0.483796	-0.824895	-0.468371	-0.316507	0.015075	-0.577934	0.815944						
04915														6.908916	12.106344	1.609622	-0.561902	0.616332	0.551726	-0.825403	-0.461734	-0.324825	0.054551	-0.637916	0.768171						
04916														6.046971	11.162319	1.644909	-0.545416	0.561496	0.622289	-0.832577	-0.448541	-0.325003	0.096634	-0.695365	0.712130						
04917														5.679325	10.157417	1.631779	-0.519022	0.504099	0.690290	-0.843553	-0.432430	-0.318468	0.137963	-0.747588	0.649675						
04918														5.436900	9.297529	1.639801	-0.488792	0.439909	0.753367	-0.854349	-0.416137	-0.311318	0.176552	-0.795808	0.579240						
04919														4.394487	8.102343	1.724598	-0.456846	0.369951	0.808967	-0.864494	-0.398953	-0.305756	0.209625	-0.839031	0.502081						
04920														3.288777	6.760343	1.522824	-0.421522	0.302366	0.854923	-0.876037	-0.379329	-0.297773	0.234261	-0.874462	0.424780						
04921														3.006001	5.543046	1.190935	-0.383156	0.245277	0.890523	-0.889416	-0.358137	-0.284038	0.249261	-0.900876	0.355376						
04922														3.201202	4.504095	0.977819	-0.344663	0.199469	0.917289	-0.902887	-0.337870	-0.265780	0.256909	-0.919813	0.296550						
04923														3.841636	3.883562	0.865559	-0.309770	0.161183	0.937050	-0.914589	-0.319945	-0.247311	0.259942	-0.933625	0.246526						
04924														3.572268	3.155894	0.799143	-0.280634	0.129368	0.951057	-0.924403	-0.303099	-0.231539	0.258311	-0.944137	0.204648						
04925														3.062307	2.396292	0.541632	-0.255015	0.106850	0.961015	-0.933422	-0.286603	-0.215827	0.252368	-0.952072	0.172824						
04926														3.172385	1.662658	0.215276	-0.234491	0.095857	0.967381	-0.941047	-0.271968	-0.201158	0.243814	-0.957520	0.153980						
04927														3.592471	1.104255	0.132724	-0.223420	0.096009	0.969982	-0.946056	-0.260926	-0.192083	0.234652	-0.960573	0.149126						
04928														3.856085	0.763763	0.294939	-0.223419	0.104013	0.969157	-0.947291	-0.257397	-0.190753	0.229618	-0.960691	0.156038						
04929														3.974466	1.122967	0.793748	-0.235485	0.119955	0.964447	-0.944706	-0.261264	-0.198170	0.228204	-0.957785	0.174846						
04930														4.120312	1.991456	1.194166	-0.255582	0.146919	0.955559	-0.940127	-0.268283	-0.210206	0.225477	-0.952071	0.206691						
04931														4.608060	2.776645	1.485831	-0.276747	0.184760	0.943014	-0.935731	-0.275129	-0.220705	0.218673	-0.943487	0.249027						
04932														5.190176	3.513124	1.610802	-0.296027	0.230590	0.926928	-0.932529	-0.279847	-0.228199	0.206777	-0.931941	0.297874						
04933														6.256218	4.105832	1.551865	-0.314819	0.281822	0.906347	-0.930172	-0.281614	-0.235529	0.188863	-0.917208	0.350800						
04934														6.773714	4.361374	1.483100	-0.335812	0.336508	0.879769	-0.927237	-0.282419	-0.245907	0.165714	-0.898333	0.406862						
04935														6.877843	4.813504	1.713273	-0.359921	0.392969	0.846187	-0.922537	-0.285238	-0.259932	0.139219	-0.874194	0.465192						
04936														6.829847	5.761674	2.166145	-0.386294	0.450577	0.804834	-0.915904	-0.290559	-0.276939	0.109069	-0.844131	0.524926						
04937														7.239531	7.094776	2.433619	-0.410774	0.510191	0.755625	-0.908756	-0.296074	-0.294113	0.073667	-0.807493	0.585259						
04938														7.523043	8.518495	2.587258	-0.429654	0.571421	0.699196	-0.902391	-0.299989	-0.309350	0.032982	-0.763862	0.644537						
04939														5.695813	10.163673	2.825512	-0.430371	0.638400	0.638143	-0.902585	-0.295753	-0.312841	-0.010985	-0.710616	0.703494						
04940														4.325415	11.363349	2.450886	-0.393778	0.718616	0.573175	-0.917532	-0.269674	-0.292253	-0.055447	-0.640989	0.765545						
04941														6.307628	12.424906	2.067866	-0.331937	0.801378	0.497606	-0.938404	-0.226848	-0.260648	-0.095996	-0.553474	0.827315						
04942														8.009913	13.913581	2.154017	-0.277448	0.869780	0.408050	-0.951657	-0.190538	-0.240924	-0.131802	-0.455167	0.880597						
04943														8.205337	15.026215	2.343863	-0.243425	0.918171	0.312581	-0.955829	-0.172356	-0.238085	-0.164727	-0.356730	0.919570						
04944														7.693438	15.552481	2.453753	-0.225264	0.949020	0.220491	-0.953991	-0.168884	-0.247748	-0.197881	-0.266155	0.943401						
04945														7.146929	15.062270	2.284747	-0.215851	0.966837	0.136506	-0.948952	-0.174787	-0.262562	-0.229995	-0.186212	0.955211						
04946														6.972570	13.370220	2.289631	-0.214561	0.974875	0.059853	-0.942727	-0.190682	-0.273691	-0.255401	-0.115149	0.959954						
04947														6.465034	11.614471	2.481038	-0.221524	0.975096	-0.010761	-0.937247	-0.215947	-0.273742	-0.269248	-0.050555	0.961743						
04948														5.741180	10.606746	2.626973	-0.230062	0.970327	-0.074417	-0.933969	-0.241633	-0.263278	-0.273447	0.008933	0.961846						
04949														5.322167	9.936306	2.818064	-0.235721	0.963258	-0.128727	-0.932821	-0.261416	-0.248007	-0.272546	0.061619	0.960168						
04950														5.056092	9.263276	3.106920	-0.238722	0.955681	-0.172293	-0.932677	-0.275048	-0.233373	-0.270419	0.104983	0.957002						
04951														4.554354	9.001950	3.340400	-0.237575	0.949254	-0.206093	-0.933113	-0.281979	-0.223131	-0.269922	0.139298	0.952753						
04952														3.948993	8.587965	3.381576	-0.226173	0.946342	-0.230830	-0.935346	-0.277158	-0.219798	-0.271980	0.166194	0.947843						
04953														3.379703	8.586965	3.331328	-0.202018	0.947245	-0.248829	-0.939957	-0.258884	-0.222397	-0.275082	0.188961	0.942668						
04954														3.331806	8.514294	2.578634	-0.161845	0.951881	-0.260247	-0.945898	-0.224796	-0.233973	-0.281217	0.208300	0.936765						
04955														4.405577	8.027007	1.790349	-0.114290	0.957197	-0.265918	-0.950474	-0.183231	-0.251049	-0.289028	0.224056	0.930732						
04956														5.752568	7.664920	1.375182	-0.075205	0.960403	-0.268271	-0.952859	-0.148520	-0.264579	-0.293946	0.235727	0.926298						
04957														6.763252	7.796666	1.243201	-0.058436	0.961375	-0.268968	-0.953470	-0.133574	-0.270285	-0.295772	0.240658	0.924447						
04958														7.117231	8.290098	1.463921	-0.068618	0.961040	-0.267758	-0.952586	-0.142862	-0.268646	-0.296432	0.236629	0.925276						
04959														6.850234	8.824590	1.943828	-0.100124	0.960207	-0.260725	-0.949877	-0.170243	-0.262203	-0.296156	0.221404	0.929124						
04960														5.871962	9.322247	2.338035	-0.140350	0.959716	-0.243409	-0.945145	-0.203105	-0.255832	-0.294963	0.194151	0.935576						
04961														4.826451	9.426144	2.589744	-0.175932	0.960827	-0.214150	-0.939990	-0.228577	-0.253321	-0.292348	0.156731	0.943381						
04962														4.447458	9.201666	2.681499	-0.202163	0.963426	-0.175901	-0.936562	-0.242697	-0.252882	-0.286324	0.113619	0.951372						
04963														4.456140	9.414841	2.529344	-0.220173	0.966371	-0.132853	-0.935198	-0.247844	-0.252938	-0.277359	0.068554	0.958317						
04964														5.154308	9.726558	2.133544	-0.234867	0.968082	-0.087494	-0.934425	-0.249659	-0.254008	-0.267744	0.022099	0.963237						
04965														6.078363	10.042008	2.136757	-0.254785	0.966160	-0.040234	-0.932896	-0.256539	-0.252771	-0.254539	-0.026868	0.966689						
04966														6.035380	11.071078	2.110392	-0.279498	0.960073	0.011879	-0.930185	-0.267689	-0.251194	-0.237985	-0.081258	0.967864						
04967														5.848775	12.066517	1.808298	-0.301652	0.950814	0.070416	-0.927425	-0.275498	-0.252950	-0.221109	-0.141608	0.964913						
04968														6.362447	13.461611	1.557661	-0.324331	0.936650	0.132269	-0.924110	-0.283864	-0.255815	-0.202063	-0.205200	0.957634						
04969														7.177382	13.895582	1.719096	-0.356664	0.913888	0.193904	-0.917500	-0.303542	-0.257015	-0.176025	-0.269575	0.946755						
04970														7.319973	13.774105	1.572643	-0.396067	0.881493	0.257100	-0.907323	-0.332702	-0.257049	-0.141049	-0.335081	0.931572						
04971														7.200864	13.687079	1.512391	-0.428534	0.841943	0.327858	-0.898031	-0.356940	-0.257164	-0.099492	-0.404631	0.909052						
04972														7.401664	13.194080	1.829881	-0.450367	0.795184	0.406019	-0.891386	-0.374482	-0.255331	-0.050989	-0.476912	0.877471						
04973														6.960911	12.867023	2.272599	-0.465188	0.738626	0.487884	-0.885208	-0.389740	-0.253986	0.002547	-0.550030	0.835141						
04974														6.967989	12.434869	2.795489	-0.468960	0.671538	0.573683	-0.881351	-0.398037	-0.254532	0.057419	-0.624982	0.778525						
04975														6.901795	11.545689	3.218507	-0.458213	0.598984	0.656703	-0.882498	-0.394701	-0.255751	0.106010	-0.696727	0.709459						
04976														7.083504	10.495554	3.007253	-0.435973	0.528144	0.728691	-0.888693	-0.380369	-0.256015	0.141959	-0.759199	0.635189						
04977														7.401270	9.239076	2.259291	-0.409620	0.461004	0.787202	-0.896904	-0.361161	-0.255199	0.166659	-0.810579	0.561415						
04978														7.621298	8.272455	1.704751	-0.382273	0.394666	0.835528	-0.905267	-0.341331	-0.252950	0.185361	-0.853072	0.487760						
04979														7.006607	7.477183	1.217342	-0.352384	0.329250	0.876025	-0.914513	-0.319917	-0.247626	0.198724	-0.888396	0.413837						
04980														6.527107	6.479038	0.784040	-0.318347	0.267607	0.909418	-0.925154	-0.296930	-0.236480	0.206750	-0.916635	0.342104						
04981														6.081230	5.295905	0.455464	-0.284717	0.209806	0.935370	-0.935012	-0.275958	-0.222710	0.211397	-0.937992	0.274741						
04982														4.756484	4.284047	0.279595	-0.254624	0.153412	0.954794	-0.942876	-0.258722	-0.209875	0.214829	-0.953692	0.210525						
04983														3.389088	3.907762	0.442579	-0.224994	0.097112	0.969509	-0.950322	-0.241528	-0.196348	0.215096	-0.965522	0.146630						
04984														2.539446	3.427356	0.564487	-0.194903	0.041679	0.979937	-0.959050	-0.217443	-0.181500	0.205516	-0.975183	0.082352						
04985														1.988774	2.264755	0.092976	-0.171949	-0.004033	0.985098	-0.967380	-0.188155	-0.169627	0.186036	-0.982131	0.028452						
04986														1.403876	1.378134	-0.425731	-0.160630	-0.032706	0.986473	-0.972998	-0.162589	-0.163827	0.165748	-0.986152	-0.005706						
04987														0.843809	1.457857	-0.474298	-0.155547	-0.042771	0.986902	-0.976089	-0.146914	-0.160210	0.151842	-0.988224	-0.018896						
04988														0.673218	1.962723	-0.376102	-0.153472	-0.033340	0.987590	-0.978073	-0.137262	-0.156627	0.140781	-0.989973	-0.011543						
04989														0.641285	2.347431	-0.478091	-0.151486	-0.000461	0.988459	-0.980005	-0.130438	-0.150252	0.129002	-0.991456	0.019307						
04990														0.745819	2.533631	-0.796650	-0.144526	0.057390	0.987835	-0.982367	-0.127980	-0.136291	0.118602	-0.990115	0.074874						
04991														1.710665	2.510208	-1.109544	-0.134651	0.136499	0.981446	-0.983867	-0.136159	-0.116046	0.117792	-0.981238	0.152631						
04992														3.475107	3.889094	-0.760235	-0.136470	0.229035	0.963804	-0.982729	-0.154042	-0.102544	0.124980	-0.961153	0.246101						
04993														5.767149	6.705416	-0.027089	-0.159324	0.325320	0.932085	-0.979030	-0.173477	-0.106801	0.126951	-0.929555	0.346137						
04994														7.431077	8.916532	0.902695	-0.196004	0.418526	0.886802	-0.973965	-0.188134	-0.126480	0.113902	-0.888505	0.444505						
04995														7.685924	9.975245	1.541898	-0.230001	0.506942	0.830728	-0.969038	-0.198069	-0.147425	0.089806	-0.838915	0.536802						
04996														7.927650	11.297318	2.349454	-0.255764	0.594753	0.762138	-0.964930	-0.205266	-0.163634	0.059119	-0.777261	0.626394						
04997														9.420966	13.332292	3.482026	-0.282818	0.677163	0.679312	-0.958939	-0.215276	-0.184640	0.021208	-0.703638	0.710242						
04998														11.378156	15.054033	4.162972	-0.322884	0.744077	0.584889	-0.946009	-0.235105	-0.223145	-0.028526	-0.625360	0.779815						
04999														10.547711	14.925819	4.329707	-0.369661	0.791942	0.485982	-0.925139	-0.265056	-0.271777	-0.086419	-0.550066	0.830638						
05000														8.874182	14.076357	4.340117	-0.395300	0.831307	0.390727	-0.907664	-0.288213	-0.305088	-0.141010	-0.475250	0.868478						
