// General information: 
//  MT Manager version: 2022.2.0 
//  XDA version: 2022.2.0 build 7381 rev 124627 built on 2023-07-19
// Device information: 
//  DeviceId: 00B4D4C6
//  ProductCode: MTW2-3A7G6
//  Firmware Version: 4.6.0
//  Hardware Version: 2.0.0
// Device settings: 
//  Filter Profile: human(46.1)
//  Option Flags: Orientation Smoother Disabled, Position/Velocity Smoother Disabled, Continuous Zero Rotation Update Disabled, AHS Disabled, ICC Disabled
// Coordinate system: ENU
PacketCounter	SampleTimeFine	Year	Month	Day	Second	UTC_Nano	UTC_Year	UTC_Month	UTC_Day	UTC_Hour	UTC_Minute	UTC_Second	UTC_Valid	Acc_X	Acc_Y	Acc_Z	Mat[1][1]	Mat[2][1]	Mat[3][1]	Mat[1][2]	Mat[2][2]	Mat[3][2]	Mat[1][3]	Mat[2][3]	Mat[3][3]	Latitude	Longitude	Altitude	Vel_E	Vel_N	Vel_U
04221														-1.080019	-9.716425	-1.034690	0.999900	-0.004466	-0.013419	0.004316	0.999928	-0.011178	0.013468	0.011118	0.999847						
04222														-1.092456	-9.691125	-0.976808	0.999906	-0.004336	-0.013010	0.004196	0.999933	-0.010805	0.013056	0.010749	0.999857						
04223														-1.081603	-9.740393	-1.006145	0.999911	-0.004197	-0.012647	0.004067	0.999939	-0.010318	0.012690	0.010265	0.999867						
04224														-1.125320	-9.712346	-0.972316	0.999916	-0.004024	-0.012315	0.003904	0.999945	-0.009722	0.012353	0.009673	0.999877						
04225														-1.061263	-9.736333	-0.921607	0.999920	-0.004171	-0.011960	0.004062	0.999950	-0.009091	0.011998	0.009042	0.999887						
04226														-1.122371	-9.672617	-0.913040	0.999923	-0.004521	-0.011545	0.004424	0.999955	-0.008403	0.011582	0.008351	0.999898						
04227														-1.069365	-9.683961	-0.822983	0.999926	-0.004811	-0.011201	0.004724	0.999958	-0.007807	0.011238	0.007754	0.999907						
04228														-1.109381	-9.674795	-0.753757	0.999927	-0.005387	-0.010849	0.005305	0.999958	-0.007534	0.010890	0.007475	0.999913						
04229														-1.086124	-9.682218	-0.780587	0.999928	-0.006035	-0.010387	0.005958	0.999955	-0.007446	0.010431	0.007384	0.999918						
04230														-1.049587	-9.673168	-0.903896	0.999925	-0.007215	-0.009897	0.007140	0.999946	-0.007595	0.009951	0.007523	0.999922						
04231														-1.069848	-9.768006	-0.935040	0.999924	-0.007924	-0.009444	0.007853	0.999940	-0.007585	0.009504	0.007510	0.999927						
04232														-1.128214	-9.707966	-0.904143	0.999925	-0.008265	-0.009028	0.008197	0.999938	-0.007543	0.009090	0.007468	0.999931						
04233														-1.076047	-9.613964	-0.851948	0.999928	-0.008302	-0.008634	0.008236	0.999937	-0.007643	0.008697	0.007571	0.999934						
04234														-1.016793	-9.656479	-0.981986	0.999926	-0.009016	-0.008209	0.008952	0.999930	-0.007797	0.008279	0.007723	0.999936						
04235														-1.079042	-9.718813	-0.992030	0.999923	-0.009691	-0.007807	0.009630	0.999923	-0.007792	0.007882	0.007716	0.999939						
04236														-1.018910	-9.705506	-0.973938	0.999922	-0.009964	-0.007486	0.009906	0.999921	-0.007674	0.007561	0.007599	0.999943						
04237														-1.035164	-9.691268	-0.853316	0.999924	-0.010033	-0.007231	0.009978	0.999922	-0.007557	0.007307	0.007484	0.999945						
04238														-1.046849	-9.684313	-0.761280	0.999923	-0.010254	-0.007041	0.010201	0.999919	-0.007588	0.007119	0.007516	0.999946						
04239														-1.054914	-9.794915	-0.888260	0.999920	-0.010634	-0.006841	0.010581	0.999914	-0.007710	0.006923	0.007637	0.999947						
04240														-1.097024	-9.760457	-0.998385	0.999919	-0.010823	-0.006623	0.010772	0.999913	-0.007648	0.006705	0.007576	0.999949						
04241														-1.027503	-9.697100	-0.885139	0.999923	-0.010611	-0.006498	0.010562	0.999916	-0.007572	0.006578	0.007502	0.999950						
04242														-0.983247	-9.692843	-0.870451	0.999925	-0.010460	-0.006353	0.010412	0.999918	-0.007514	0.006431	0.007447	0.999952						
04243														-1.017661	-9.711372	-0.899217	0.999927	-0.010305	-0.006318	0.010257	0.999919	-0.007543	0.006396	0.007478	0.999952						
04244														-1.050710	-9.707820	-0.886218	0.999930	-0.010031	-0.006299	0.009983	0.999921	-0.007631	0.006375	0.007567	0.999951						
04245														-1.045585	-9.698522	-0.820315	0.999931	-0.009916	-0.006309	0.009866	0.999921	-0.007822	0.006386	0.007759	0.999950						
04246														-1.037475	-9.674551	-0.889451	0.999929	-0.010095	-0.006303	0.010042	0.999916	-0.008243	0.006386	0.008179	0.999946						
04247														-1.024618	-9.721464	-0.949900	0.999928	-0.010238	-0.006278	0.010184	0.999911	-0.008603	0.006366	0.008538	0.999943						
04248														-1.060157	-9.730890	-0.977574	0.999928	-0.010224	-0.006319	0.010167	0.999909	-0.008916	0.006409	0.008851	0.999940						
04249														-1.021549	-9.724422	-1.010919	0.999928	-0.010087	-0.006442	0.010029	0.999910	-0.008956	0.006531	0.008891	0.999939						
04250														-1.044074	-9.705719	-0.920594	0.999929	-0.009986	-0.006536	0.009927	0.999911	-0.008966	0.006625	0.008901	0.999938						
04251														-1.039058	-9.748448	-0.880421	0.999924	-0.010360	-0.006609	0.010301	0.999907	-0.008951	0.006701	0.008882	0.999938						
04252														-1.067276	-9.706651	-0.855945	0.999921	-0.010694	-0.006645	0.010634	0.999902	-0.009084	0.006742	0.009013	0.999937						
04253														-1.063001	-9.707656	-0.896856	0.999917	-0.010987	-0.006656	0.010926	0.999898	-0.009204	0.006757	0.009131	0.999935						
04254														-1.065536	-9.694837	-0.922405	0.999919	-0.010802	-0.006759	0.010738	0.999898	-0.009397	0.006860	0.009324	0.999933						
04255														-1.045814	-9.699028	-0.935771	0.999922	-0.010401	-0.006854	0.010335	0.999901	-0.009531	0.006952	0.009459	0.999931						
04256														-1.073647	-9.682386	-1.010856	0.999925	-0.010034	-0.006980	0.009967	0.999904	-0.009583	0.007075	0.009513	0.999930						
04257														-1.048778	-9.712168	-0.973887	0.999928	-0.009694	-0.007026	0.009627	0.999908	-0.009536	0.007118	0.009468	0.999930						
04258														-1.078477	-9.736457	-0.927200	0.999929	-0.009571	-0.007044	0.009504	0.999911	-0.009378	0.007133	0.009311	0.999931						
04259														-1.073885	-9.666185	-0.912717	0.999932	-0.009255	-0.007030	0.009189	0.999915	-0.009280	0.007115	0.009214	0.999932						
04260														-1.042628	-9.694917	-0.898213	0.999934	-0.009153	-0.006964	0.009089	0.999916	-0.009195	0.007047	0.009131	0.999933						
04261														-1.099798	-9.687785	-0.934243	0.999934	-0.009242	-0.006821	0.009179	0.999916	-0.009177	0.006905	0.009114	0.999935						
04262														-1.068182	-9.681917	-0.902390	0.999936	-0.009131	-0.006697	0.009070	0.999917	-0.009161	0.006780	0.009100	0.999936						
04263														-1.030982	-9.772364	-0.959861	0.999936	-0.009235	-0.006517	0.009176	0.999917	-0.009050	0.006601	0.008990	0.999938						
04264														-1.038953	-9.731367	-0.974317	0.999934	-0.009574	-0.006292	0.009518	0.999916	-0.008839	0.006376	0.008778	0.999941						
04265														-1.019857	-9.680900	-0.900088	0.999932	-0.009939	-0.006092	0.009886	0.999914	-0.008604	0.006177	0.008543	0.999944						
04266														-1.030772	-9.699458	-0.905894	0.999927	-0.010519	-0.005870	0.010469	0.999909	-0.008465	0.005958	0.008403	0.999947						
04267														-1.026709	-9.732232	-0.904990	0.999925	-0.010845	-0.005712	0.010798	0.999908	-0.008220	0.005801	0.008158	0.999950						
04268														-1.054566	-9.730276	-0.928817	0.999923	-0.011092	-0.005555	0.011048	0.999908	-0.007921	0.005642	0.007859	0.999953						
04269														-1.083525	-9.667718	-0.920943	0.999925	-0.010976	-0.005410	0.010935	0.999911	-0.007641	0.005493	0.007581	0.999956						
04270														-1.072454	-9.685991	-0.904747	0.999928	-0.010794	-0.005225	0.010755	0.999915	-0.007400	0.005304	0.007343	0.999959						
04271														-1.005794	-9.718434	-0.902184	0.999930	-0.010677	-0.005024	0.010640	0.999917	-0.007218	0.005101	0.007164	0.999961						
04272														-0.965628	-9.732688	-0.872523	0.999931	-0.010674	-0.004805	0.010639	0.999918	-0.007120	0.004880	0.007068	0.999963						
04273														-1.019610	-9.721207	-0.874995	0.999930	-0.010879	-0.004628	0.010846	0.999916	-0.007071	0.004704	0.007020	0.999964						
04274														-0.988065	-9.715154	-0.843116	0.999927	-0.011231	-0.004540	0.011199	0.999912	-0.007083	0.004619	0.007032	0.999965						
04275														-0.946279	-9.723942	-0.867441	0.999920	-0.011833	-0.004418	0.011801	0.999905	-0.007150	0.004502	0.007097	0.999965						
04276														-0.988740	-9.722426	-0.893896	0.999913	-0.012420	-0.004396	0.012388	0.999897	-0.007288	0.004486	0.007233	0.999964						
04277														-0.993821	-9.688432	-0.939185	0.999908	-0.012799	-0.004482	0.012766	0.999891	-0.007415	0.004577	0.007357	0.999962						
04278														-1.034175	-9.714343	-0.933382	0.999906	-0.012875	-0.004643	0.012840	0.999890	-0.007460	0.004739	0.007399	0.999961						
04279														-1.024725	-9.701248	-0.873258	0.999906	-0.012808	-0.004832	0.012772	0.999890	-0.007518	0.004927	0.007455	0.999960						
04280														-1.030372	-9.736948	-0.868425	0.999908	-0.012636	-0.004993	0.012598	0.999891	-0.007642	0.005089	0.007579	0.999958						
04281														-1.077478	-9.731208	-0.923807	0.999910	-0.012354	-0.005168	0.012314	0.999894	-0.007715	0.005262	0.007651	0.999957						
04282														-1.048094	-9.687281	-0.943581	0.999916	-0.011764	-0.005372	0.011723	0.999901	-0.007758	0.005462	0.007695	0.999955						
04283														-1.015060	-9.725315	-0.974824	0.999922	-0.011200	-0.005580	0.011156	0.999907	-0.007806	0.005667	0.007743	0.999954						
04284														-1.049536	-9.702019	-0.935197	0.999928	-0.010515	-0.005768	0.010471	0.999916	-0.007692	0.005848	0.007631	0.999954						
04285														-1.044651	-9.707592	-0.859645	0.999932	-0.010094	-0.005924	0.010049	0.999920	-0.007680	0.006001	0.007620	0.999953						
04286														-1.032210	-9.735126	-0.890453	0.999931	-0.010070	-0.005999	0.010024	0.999920	-0.007673	0.006076	0.007612	0.999953						
04287														-1.043161	-9.702427	-0.910440	0.999933	-0.009849	-0.006138	0.009802	0.999923	-0.007548	0.006212	0.007487	0.999953						
04288														-1.021875	-9.684290	-0.964300	0.999936	-0.009370	-0.006336	0.009322	0.999929	-0.007418	0.006405	0.007359	0.999952						
04289														-1.033037	-9.712711	-0.929246	0.999941	-0.008711	-0.006548	0.008663	0.999936	-0.007244	0.006610	0.007187	0.999952						
04290														-1.052012	-9.721039	-0.890471	0.999943	-0.008238	-0.006756	0.008190	0.999942	-0.007060	0.006814	0.007004	0.999952						
04291														-1.019250	-9.716028	-0.897183	0.999942	-0.008311	-0.006846	0.008264	0.999942	-0.006889	0.006903	0.006832	0.999953						
04292														-1.038547	-9.709432	-0.866586	0.999938	-0.008718	-0.006936	0.008671	0.999939	-0.006796	0.006994	0.006736	0.999953						
04293														-1.031227	-9.720940	-0.864285	0.999934	-0.009111	-0.007015	0.009064	0.999936	-0.006715	0.007076	0.006651	0.999953						
04294														-1.068751	-9.733215	-0.904276	0.999930	-0.009458	-0.007090	0.009411	0.999934	-0.006603	0.007152	0.006536	0.999953						
04295														-1.069214	-9.715991	-0.893787	0.999927	-0.009707	-0.007151	0.009661	0.999932	-0.006480	0.007213	0.006411	0.999953						
04296														-1.086092	-9.678263	-0.902287	0.999924	-0.009950	-0.007210	0.009904	0.999931	-0.006389	0.007273	0.006317	0.999954						
04297														-1.080002	-9.657496	-0.898892	0.999923	-0.010074	-0.007221	0.010028	0.999930	-0.006331	0.007285	0.006259	0.999954						
04298														-1.075832	-9.730968	-0.904826	0.999920	-0.010435	-0.007189	0.010390	0.999927	-0.006247	0.007254	0.006172	0.999955						
04299														-1.055688	-9.755315	-0.941014	0.999918	-0.010662	-0.007135	0.010619	0.999925	-0.006059	0.007199	0.005982	0.999956						
04300														-1.040834	-9.683107	-0.887043	0.999916	-0.010866	-0.007067	0.010825	0.999925	-0.005815	0.007129	0.005738	0.999958						
04301														-1.051165	-9.679447	-0.850176	0.999915	-0.010983	-0.007007	0.010943	0.999924	-0.005640	0.007069	0.005563	0.999960						
04302														-1.078931	-9.674990	-0.858464	0.999914	-0.011138	-0.006957	0.011100	0.999923	-0.005513	0.007018	0.005435	0.999961						
04303														-1.066956	-9.716345	-0.926194	0.999914	-0.011175	-0.006885	0.011138	0.999923	-0.005433	0.006945	0.005356	0.999962						
04304														-1.065519	-9.716645	-0.924708	0.999916	-0.011086	-0.006767	0.011051	0.999925	-0.005280	0.006825	0.005204	0.999963						
04305														-1.055248	-9.725993	-0.905191	0.999918	-0.010957	-0.006694	0.010923	0.999927	-0.005156	0.006750	0.005083	0.999964						
04306														-1.052347	-9.678075	-0.847901	0.999921	-0.010725	-0.006600	0.010692	0.999930	-0.005042	0.006653	0.004971	0.999966						
04307														-1.017363	-9.727749	-0.898756	0.999922	-0.010669	-0.006481	0.010637	0.999931	-0.004926	0.006534	0.004857	0.999967						
04308														-1.032007	-9.779569	-0.967904	0.999921	-0.010819	-0.006324	0.010789	0.999931	-0.004651	0.006374	0.004583	0.999969						
04309														-1.036789	-9.694387	-0.896412	0.999922	-0.010854	-0.006215	0.010827	0.999932	-0.004285	0.006261	0.004217	0.999972						
04310														-1.003051	-9.683597	-0.828413	0.999922	-0.010920	-0.006094	0.010896	0.999933	-0.004034	0.006137	0.003967	0.999973						
04311														-1.039446	-9.679023	-0.773154	0.999920	-0.011132	-0.006032	0.011109	0.999930	-0.003952	0.006076	0.003885	0.999974						
04312														-1.032603	-9.712819	-0.813941	0.999918	-0.011298	-0.005949	0.011275	0.999928	-0.004016	0.005994	0.003948	0.999974						
04313														-1.035827	-9.740073	-0.804626	0.999918	-0.011429	-0.005849	0.011404	0.999926	-0.004153	0.005896	0.004086	0.999974						
04314														-1.031622	-9.689288	-0.819340	0.999917	-0.011532	-0.005786	0.011507	0.999924	-0.004377	0.005836	0.004310	0.999974						
04315														-0.997467	-9.712539	-0.860528	0.999914	-0.011778	-0.005714	0.011751	0.999920	-0.004696	0.005769	0.004628	0.999973						
04316														-1.030699	-9.728512	-0.961296	0.999910	-0.012154	-0.005645	0.012126	0.999914	-0.004996	0.005705	0.004927	0.999972						
04317														-1.035446	-9.703483	-0.926550	0.999909	-0.012280	-0.005642	0.012251	0.999912	-0.005171	0.005705	0.005102	0.999971						
04318														-1.003041	-9.683447	-0.859072	0.999909	-0.012236	-0.005638	0.012206	0.999911	-0.005405	0.005703	0.005335	0.999970						
04319														-1.040401	-9.732844	-0.936491	0.999906	-0.012457	-0.005690	0.012425	0.999907	-0.005547	0.005759	0.005476	0.999968						
04320														-1.168522	-9.749850	-0.992848	0.999899	-0.013029	-0.005710	0.012999	0.999902	-0.005276	0.005778	0.005202	0.999970						
04321														-1.497289	-9.738459	-1.002301	0.999919	-0.011238	-0.005977	0.011209	0.999926	-0.004832	0.006031	0.004765	0.999970						
04322														-1.059226	-9.658803	-0.899761	0.999936	-0.009435	-0.006163	0.009412	0.999948	-0.003845	0.006199	0.003787	0.999974						
04323														-1.001574	-9.729638	-0.731497	0.999947	-0.008174	-0.006312	0.008153	0.999961	-0.003256	0.006338	0.003205	0.999975						
04324														-0.535238	-9.702529	-0.679559	0.999938	-0.009083	-0.006467	0.009064	0.999954	-0.003054	0.006494	0.002995	0.999974						
04325														-1.057037	-9.800053	-0.825976	0.999941	-0.008458	-0.006812	0.008438	0.999960	-0.003039	0.006838	0.002981	0.999972						
04326														-1.068801	-9.716319	-0.773534	0.999942	-0.007801	-0.007433	0.007780	0.999966	-0.002879	0.007455	0.002821	0.999968						
04327														-0.788910	-9.712718	-0.834312	0.999941	-0.007101	-0.008223	0.007077	0.999971	-0.002930	0.008243	0.002871	0.999962						
04328														-0.915281	-9.763914	-0.629566	0.999935	-0.006865	-0.009091	0.006838	0.999972	-0.002994	0.009112	0.002932	0.999954						
04329														-0.687904	-9.681704	-0.570870	0.999931	-0.005757	-0.010253	0.005721	0.999977	-0.003580	0.010274	0.003521	0.999941						
04330														-0.745045	-9.678386	-0.861621	0.999917	-0.005229	-0.011762	0.005174	0.999976	-0.004709	0.011786	0.004648	0.999920						
04331														-0.782043	-9.864743	-1.145370	0.999898	-0.003836	-0.013759	0.003760	0.999977	-0.005583	0.013780	0.005531	0.999890						
04332														-1.064804	-9.624377	-1.212162	0.999865	-0.001832	-0.016336	0.001728	0.999978	-0.006353	0.016347	0.006323	0.999846						
04333														-1.511149	-9.102897	-1.847866	0.999785	0.003686	-0.020386	-0.003921	0.999926	-0.011491	0.020342	0.011568	0.999726						
04334														-0.908055	-9.712690	-2.058205	0.999709	0.004954	-0.023621	-0.005394	0.999813	-0.018582	0.023524	0.018704	0.999548						
04335														-1.679894	-9.960188	-1.326845	0.999607	0.008126	-0.026826	-0.008760	0.999684	-0.023568	0.026626	0.023794	0.999362						
04336														-1.249276	-9.644004	-1.076295	0.999495	0.011877	-0.029457	-0.012638	0.999587	-0.025801	0.029138	0.026161	0.999233						
04337														-1.208314	-9.461392	-1.344755	0.999389	0.014109	-0.031976	-0.015030	0.999474	-0.028752	0.031554	0.029215	0.999075						
04338														-1.458276	-9.811810	-0.709735	0.999341	0.013058	-0.033857	-0.014247	0.999282	-0.035114	0.033374	0.035573	0.998810						
04339														-1.736092	-9.589590	-0.578240	0.999344	0.006551	-0.035624	-0.008116	0.999000	-0.043970	0.035300	0.044230	0.998398						
04340														-2.389613	-9.820581	-0.881903	0.999267	-0.002612	-0.038186	0.000527	0.998514	-0.054500	0.038271	0.054440	0.997783						
04341														-1.403302	-9.703199	-1.234382	0.999085	-0.011210	-0.041262	0.008469	0.997782	-0.066026	0.041911	0.065616	0.996964						
04342														-1.122859	-9.423429	-1.830109	0.998841	-0.018221	-0.044539	0.014671	0.996785	-0.078763	0.045831	0.078018	0.995898						
04343														-1.390622	-9.411242	-1.877373	0.998594	-0.022037	-0.048202	0.017609	0.995747	-0.090428	0.049990	0.089452	0.994736						
04344														-1.307398	-9.036031	-1.768819	0.998377	-0.023223	-0.051992	0.017895	0.994756	-0.100697	0.054058	0.099603	0.993558						
04345														-1.236521	-9.116951	-1.455873	0.998191	-0.023316	-0.055424	0.016991	0.993566	-0.111972	0.057678	0.110828	0.992165						
04346														-1.288216	-9.352494	-1.092612	0.998046	-0.021773	-0.058565	0.014274	0.991986	-0.125542	0.060829	0.124461	0.990358						
04347														-1.339417	-9.775344	-0.668049	0.997879	-0.019684	-0.062052	0.010780	0.989994	-0.140696	0.064201	0.139729	0.988106						
04348														-1.290761	-10.081831	-0.596953	0.997678	-0.018542	-0.065538	0.007991	0.987452	-0.157716	0.067640	0.156826	0.985307						
04349														-1.752267	-10.152720	-0.502518	0.997396	-0.018194	-0.069788	0.005451	0.983905	-0.178608	0.071914	0.177762	0.981442						
04350														-1.623452	-10.757383	-0.717518	0.997004	-0.018771	-0.075035	0.003214	0.979322	-0.202283	0.077281	0.201436	0.976448						
04351														-1.881221	-11.338050	-1.031989	0.996498	-0.023090	-0.080362	0.004208	0.973747	-0.227596	0.083508	0.226461	0.970434						
04352														-2.793296	-11.414782	-1.548551	0.996031	-0.027091	-0.084779	0.004757	0.967392	-0.253239	0.088875	0.251831	0.963682						
04353														-2.856176	-11.434419	-0.289493	0.995672	-0.024916	-0.089539	-0.001318	0.959512	-0.281664	0.092932	0.280562	0.955326						
04354														-2.354860	-12.642937	-0.791330	0.995120	-0.019782	-0.096668	-0.011573	0.949533	-0.313453	0.097990	0.313042	0.944670						
04355														-1.526310	-12.345783	-2.225431	0.994262	-0.016460	-0.105703	-0.021105	0.938488	-0.344666	0.104874	0.344919	0.932755						
04356														-1.843565	-10.656882	-4.359659	0.993328	-0.019496	-0.113659	-0.024583	0.927153	-0.373876	0.112669	0.374176	0.920488						
04357														-1.919944	-8.352269	-6.248535	0.992359	-0.022443	-0.121329	-0.027810	0.917334	-0.397147	0.120213	0.397486	0.909700						
04358														-0.417082	-5.968874	-7.636548	0.991888	-0.025557	-0.124516	-0.027658	0.912717	-0.407655	0.124066	0.407792	0.904607						
04359														0.183066	-2.350123	-8.919789	0.991975	-0.031354	-0.122481	-0.021930	0.911406	-0.410923	0.124514	0.410312	0.903405						
04360														-1.055066	-2.669553	-4.664045	0.991819	-0.027244	-0.124711	-0.025511	0.914948	-0.402765	0.125077	0.402651	0.906768						
04361														0.740157	-4.063062	-3.916110	0.992961	-0.028128	-0.115052	-0.017044	0.927346	-0.373818	0.117208	0.373148	0.920339						
04362														0.165065	-4.608605	-4.369594	0.994718	-0.033010	-0.097194	-0.000676	0.944749	-0.327793	0.102644	0.326127	0.939737						
04363														-0.441981	-8.174178	-3.994663	0.996231	-0.041678	-0.076065	0.020091	0.964018	-0.265077	0.084375	0.262550	0.961222						
04364														-1.216353	-10.144097	-4.866942	0.997168	-0.050825	-0.055427	0.039631	0.981549	-0.187060	0.063911	0.184334	0.980784						
04365														-3.861686	-9.353313	-4.211890	0.997702	-0.057740	-0.035452	0.053761	0.993076	-0.104452	0.041237	0.102306	0.993898						
04366														-2.054149	-9.362878	-3.157177	0.998551	-0.050924	-0.017385	0.050428	0.998339	-0.027845	0.018774	0.026928	0.999461						
04367														-1.023667	-9.224278	-1.644955	0.999059	-0.043196	-0.003816	0.043289	0.998632	0.029345	0.002543	-0.029483	0.999562						
04368														-2.047817	-7.096862	-1.267996	0.999172	-0.040102	0.006852	0.039603	0.997306	0.061750	-0.009310	-0.061427	0.998068						
04369														-2.408131	-7.299446	-0.715194	0.999516	-0.024643	0.018978	0.023295	0.997395	0.068261	-0.020610	-0.067786	0.997487						
04370														-0.149747	-7.880704	-0.375345	0.999530	-0.014726	0.026906	0.013369	0.998664	0.049922	-0.027605	-0.049539	0.998391						
04371														-1.225762	-13.406478	6.025334	0.999287	-0.025797	0.027557	0.025043	0.999312	0.027359	-0.028244	-0.026650	0.999246						
04372														-3.458745	-13.106818	0.165904	0.996933	-0.073064	0.028049	0.073201	0.997310	-0.003914	-0.027688	0.005956	0.999599						
04373														-1.306673	-7.887319	-3.973124	0.993068	-0.111601	0.036908	0.112940	0.992933	-0.036453	-0.032579	0.040369	0.998654						
04374														-1.409085	-9.463931	-6.354129	0.990367	-0.130131	0.047325	0.133329	0.988437	-0.072223	-0.037379	0.077837	0.996265						
04375														-0.810237	-9.788692	-5.495891	0.990382	-0.128530	0.051225	0.133101	0.986146	-0.099000	-0.037791	0.104866	0.993768						
04376														0.447245	-10.980778	-5.031823	0.990613	-0.125579	0.054001	0.131194	0.984364	-0.117542	-0.038396	0.123524	0.991599						
04377														0.295573	-10.019358	-4.346040	0.988651	-0.137902	0.059597	0.144678	0.980839	-0.130471	-0.040463	0.137612	0.989659						
04378														-1.803303	-9.442669	-3.546506	0.985608	-0.155060	0.067326	0.163236	0.976510	-0.140649	-0.043935	0.149615	0.987768						
04379														-1.476524	-9.943751	-2.918993	0.983792	-0.163194	0.074311	0.172750	0.973671	-0.148739	-0.048081	0.159165	0.986080						
04380														-0.216067	-9.934080	-3.234953	0.983699	-0.161409	0.079269	0.172079	0.972911	-0.154379	-0.052204	0.165503	0.984827						
04381														1.000358	-9.827144	-3.049647	0.983483	-0.160464	0.083739	0.172107	0.972295	-0.158180	-0.056037	0.169980	0.983853						
04382														0.643647	-9.843242	-3.186249	0.982997	-0.161763	0.086894	0.174083	0.971525	-0.160729	-0.058420	0.173122	0.983166						
04383														0.119237	-9.949939	-2.956103	0.983398	-0.158796	0.087823	0.171340	0.971940	-0.161169	-0.059765	0.173541	0.983011						
04384														0.125091	-9.791633	-3.039913	0.984284	-0.153343	0.087582	0.165801	0.973185	-0.159442	-0.060784	0.171457	0.983315						
04385														-0.573396	-9.433810	-3.326910	0.984582	-0.150853	0.088550	0.163299	0.974135	-0.156189	-0.062698	0.168242	0.983750						
04386														-1.345345	-9.375502	-3.117364	0.984717	-0.148939	0.090276	0.161454	0.975026	-0.152504	-0.065308	0.164749	0.984171						
04387														0.356585	-9.669773	-3.118747	0.985247	-0.145003	0.090895	0.157350	0.976397	-0.147949	-0.067296	0.160069	0.984809						
04388														0.319008	-9.503957	-2.783550	0.985079	-0.145431	0.092025	0.157515	0.977306	-0.141637	-0.069338	0.154019	0.985632						
04389														0.112331	-9.643302	-2.511149	0.985964	-0.139912	0.091107	0.151412	0.979238	-0.134786	-0.070357	0.146689	0.986677						
04390														0.246594	-9.407129	-1.834285	0.987034	-0.133669	0.088865	0.144423	0.981166	-0.128275	-0.070045	0.139446	0.987749						
04391														-0.068352	-8.910055	-0.602602	0.988800	-0.122732	0.084926	0.132716	0.983351	-0.124128	-0.068278	0.134009	0.988625						
04392														0.757892	-7.877350	0.873586	0.991437	-0.104535	0.078269	0.113926	0.985323	-0.127120	-0.063831	0.134949	0.988794						
04393														1.930623	-7.756502	1.450215	0.993993	-0.084846	0.069135	0.093933	0.985542	-0.141006	-0.056172	0.146653	0.987592						
04394														1.446706	-6.919806	2.471016	0.995629	-0.072982	0.058280	0.081773	0.982657	-0.166430	-0.045123	0.170468	0.984330						
04395														2.130357	-9.405921	1.200863	0.996425	-0.070239	0.046945	0.078323	0.976314	-0.201686	-0.031666	0.204642	0.978325						
04396														-0.010358	-11.638265	-0.321305	0.996603	-0.073999	0.036154	0.080558	0.967163	-0.241053	-0.017129	0.243147	0.969838						
04397														0.594238	-11.624532	-0.944563	0.997154	-0.072083	0.022109	0.075393	0.956488	-0.281862	-0.000829	0.282726	0.959200						
04398														-1.975435	-11.089726	-0.384649	0.997643	-0.068247	0.007190	0.066841	0.942631	-0.327076	0.015545	0.326786	0.944971						
04399														-1.971992	-11.572375	0.236592	0.998083	-0.061422	-0.007551	0.054042	0.924541	-0.377231	0.030152	0.376100	0.926088						
04400														-1.717416	-13.484201	-0.864052	0.997950	-0.059871	-0.022596	0.044327	0.901412	-0.430687	0.046154	0.428803	0.902218						
04401														-2.826746	-12.650874	-3.764941	0.997101	-0.067118	-0.035832	0.041585	0.875147	-0.482066	0.063713	0.479179	0.875402						
04402														-2.408382	-10.715088	-7.318632	0.996486	-0.071201	-0.044104	0.037262	0.848496	-0.527888	0.075008	0.524390	0.848168						
04403														0.816401	-9.429429	-7.817426	0.996121	-0.065548	-0.058705	0.021034	0.825188	-0.564467	0.085442	0.561043	0.823365						
04404														-0.495193	-9.306610	-5.282500	0.995233	-0.075336	-0.061930	0.024524	0.807945	-0.588747	0.094390	0.584422	0.805942						
04405														-2.797182	-8.280474	-4.614594	0.994659	-0.083585	-0.060549	0.031174	0.802546	-0.595776	0.098391	0.590706	0.800865						
04406														-2.913230	-7.837089	-4.672064	0.994577	-0.080906	-0.065349	0.027341	0.809654	-0.586271	0.100343	0.581305	0.807475						
04407														-1.679093	-7.510078	-5.086536	0.994810	-0.072157	-0.071743	0.019575	0.827613	-0.560957	0.099852	0.556642	0.824730						
04408														-0.834986	-7.874038	-5.363934	0.995229	-0.064730	-0.072999	0.017091	0.852311	-0.522756	0.096056	0.519014	0.849351						
04409														-0.896591	-7.783801	-5.590008	0.995552	-0.064899	-0.068299	0.024926	0.880519	-0.473355	0.090859	0.469547	0.878220						
04410														-1.915147	-8.210987	-5.553906	0.995757	-0.068219	-0.061761	0.036549	0.909126	-0.414915	0.084453	0.410897	0.907761						
04411														-1.869692	-8.428634	-5.535661	0.996069	-0.069163	-0.055350	0.045635	0.936173	-0.348566	0.075926	0.344670	0.935648						
04412														-1.471478	-8.425257	-5.319358	0.996621	-0.066694	-0.047938	0.050926	0.959684	-0.276431	0.064442	0.273055	0.959838						
04413														-0.618582	-8.524116	-4.759459	0.997260	-0.062946	-0.038861	0.053780	0.977616	-0.203410	0.050795	0.200763	0.978322						
04414														-0.169229	-8.516320	-4.658860	0.997395	-0.066638	-0.027616	0.062329	0.988874	-0.135066	0.036309	0.132993	0.990452						
04415														-0.501499	-8.055613	-4.823707	0.996704	-0.079878	-0.014151	0.078579	0.993993	-0.076184	0.020152	0.074821	0.996993						
04416														-1.101210	-7.248058	-4.907353	0.995455	-0.095224	-0.001308	0.095136	0.994971	-0.031341	0.004286	0.031074	0.999508						
04417														-1.852901	-6.658439	-4.709069	0.994765	-0.101713	0.009888	0.101752	0.994804	-0.003528	-0.009478	0.004515	0.999945						
04418														-1.902290	-6.177653	-4.755103	0.995501	-0.092520	0.020425	0.092356	0.995687	0.008857	-0.021156	-0.006930	0.999752						
04419														-1.172182	-5.955490	-4.752171	0.996711	-0.074606	0.031642	0.074351	0.997190	0.009139	-0.032235	-0.006757	0.999457						
04420														-0.764546	-6.123023	-4.664703	0.997458	-0.056479	0.043438	0.056489	0.998403	0.001012	-0.043426	0.001444	0.999056						
04421														-0.076560	-6.246619	-4.355263	0.997740	-0.038975	0.054726	0.039688	0.999140	-0.012012	-0.054211	0.014157	0.998429						
04422														1.463484	-6.773416	-2.474587	0.997613	-0.027435	0.063364	0.029049	0.999273	-0.024690	-0.062641	0.026472	0.997685						
04423														2.281710	-12.007262	3.680787	0.996924	-0.041234	0.066649	0.043589	0.998462	-0.034272	-0.065134	0.037072	0.997188						
04424														-5.852780	-19.951345	0.556118	0.992046	-0.108196	0.064337	0.112147	0.991796	-0.061349	-0.057172	0.068077	0.996041						
04425														-3.602736	-7.851499	-3.817188	0.987299	-0.142881	0.069464	0.148872	0.984708	-0.090483	-0.055474	0.099675	0.993473						
04426														-4.948886	-7.057571	-5.449243	0.984991	-0.152163	0.081476	0.161237	0.979628	-0.119716	-0.061600	0.131056	0.989459						
04427														0.840510	-9.586155	-6.377360	0.986969	-0.134383	0.088504	0.146245	0.978556	-0.145054	-0.067114	0.156107	0.985457						
04428														0.730504	-10.357188	-5.326026	0.987899	-0.122985	0.094499	0.137420	0.976563	-0.165653	-0.071911	0.176635	0.981646						
04429														2.665854	-10.085961	-4.295721	0.987421	-0.121852	0.100753	0.138650	0.973594	-0.181358	-0.075994	0.193046	0.978242						
04430														0.385141	-9.953383	-4.199793	0.985108	-0.133557	0.108284	0.152628	0.969241	-0.193074	-0.079167	0.206725	0.975191						
04431														-0.699078	-9.698864	-4.071646	0.984718	-0.133386	0.111978	0.154079	0.966953	-0.203130	-0.081183	0.217279	0.972728						
04432														0.651232	-9.473414	-4.314956	0.985211	-0.128002	0.113903	0.149878	0.965960	-0.210852	-0.083036	0.224805	0.970859						
04433														0.927580	-9.278327	-4.764200	0.985227	-0.126056	0.115920	0.148775	0.965260	-0.214802	-0.084816	0.228875	0.969754						
04434														0.083492	-9.349263	-4.393676	0.985634	-0.122264	0.116524	0.145311	0.965505	-0.216067	-0.086087	0.229895	0.969400						
04435														0.565288	-9.585239	-3.920184	0.986704	-0.114661	0.115184	0.137473	0.966850	-0.215181	-0.086693	0.228155	0.969758						
04436														0.662711	-9.532448	-3.227318	0.987321	-0.110347	0.114108	0.132721	0.968197	-0.212083	-0.087076	0.224539	0.970567						
04437														-0.435765	-9.241496	-2.065258	0.987881	-0.106340	0.113065	0.128288	0.969441	-0.209107	-0.087373	0.221077	0.971335						
04438														-0.170041	-9.369055	-1.395230	0.988803	-0.099296	0.111395	0.120982	0.970432	-0.208868	-0.087361	0.220006	0.971579						
04439														0.784548	-9.215262	-1.348278	0.989488	-0.094072	0.109840	0.115694	0.970630	-0.210931	-0.086772	0.221422	0.971310						
04440														1.420061	-8.948558	-1.428249	0.990026	-0.091162	0.107413	0.112706	0.969954	-0.215605	-0.084531	0.225561	0.970555						
04441														1.349576	-8.910962	-2.371633	0.990502	-0.089850	0.104082	0.111227	0.968605	-0.222336	-0.080837	0.231801	0.969399						
04442														0.415365	-9.431361	-2.667793	0.991245	-0.087425	0.098946	0.108241	0.967204	-0.229782	-0.075612	0.238480	0.968199						
04443														0.651444	-9.479975	-2.747214	0.992072	-0.085063	0.092503	0.104981	0.965581	-0.237976	-0.069076	0.245801	0.966856						
04444														0.056705	-9.559863	-3.123742	0.992562	-0.085807	0.086355	0.104751	0.963409	-0.246719	-0.062025	0.253930	0.965232						
04445														-0.133590	-9.616260	-2.942665	0.993400	-0.083649	0.078485	0.101183	0.961338	-0.256108	-0.054028	0.262359	0.963457						
04446														0.009492	-9.645053	-2.003672	0.994437	-0.079363	0.069262	0.095145	0.958903	-0.267307	-0.045201	0.272410	0.961119						
04447														0.361652	-9.149483	-1.249451	0.995215	-0.077247	0.059839	0.091081	0.955135	-0.281819	-0.035385	0.285921	0.957600						
04448														0.063212	-8.786133	-0.490837	0.996072	-0.073963	0.048682	0.085243	0.949751	-0.301177	-0.023960	0.304143	0.952325						
04449														0.209979	-8.525553	0.717516	0.997112	-0.067317	0.035148	0.075134	0.941786	-0.327709	-0.011042	0.329404	0.944125						
04450														0.735199	-8.991616	2.390240	0.998013	-0.060111	0.018907	0.062860	0.928677	-0.365525	0.004413	0.365987	0.930610						
04451														-0.446775	-12.735237	2.184272	0.998154	-0.060576	0.004406	0.056940	0.908057	-0.414958	0.021136	0.414443	0.909830						
04452														-2.709917	-14.609686	0.081804	0.998139	-0.060047	-0.010588	0.048076	0.881858	-0.469058	0.037502	0.467676	0.883104						
04453														-4.346783	-13.514498	-3.076744	0.998091	-0.054387	-0.029256	0.031093	0.851857	-0.522850	0.053358	0.520943	0.851922						
04454														-2.109303	-11.970069	-7.210302	0.997977	-0.048224	-0.041418	0.015868	0.819899	-0.572289	0.061556	0.570474	0.819006						
04455														0.877649	-10.679123	-9.024819	0.997424	-0.030329	-0.065007	-0.015865	0.790517	-0.612235	0.069957	0.611689	0.787999						
04456														2.161923	-9.860947	-8.018374	0.996645	-0.029700	-0.076266	-0.026115	0.767726	-0.640246	0.077567	0.640090	0.764374						
04457														-2.567722	-9.077796	-5.857623	0.996624	-0.044438	-0.069032	-0.011298	0.758609	-0.651448	0.081318	0.650029	0.755546						
04458														-3.592076	-6.548904	-6.214621	0.996580	-0.045949	-0.068681	-0.009325	0.763306	-0.645970	0.082106	0.644401	0.760267						
04459														-2.766470	-6.312500	-6.076771	0.996544	-0.032624	-0.076395	-0.022128	0.782173	-0.622668	0.080069	0.622206	0.778748						
04460														-0.684465	-6.697821	-6.229371	0.996797	-0.019405	-0.077585	-0.029787	0.810236	-0.585347	0.074221	0.585783	0.807062						
04461														-1.043674	-6.728008	-5.893110	0.997486	-0.017332	-0.068710	-0.022318	0.843445	-0.536752	0.067256	0.536937	0.840937						
04462														-1.663920	-6.886818	-5.819716	0.998190	-0.021220	-0.056275	-0.008270	0.878366	-0.477917	0.059572	0.477518	0.876600						
04463														-1.978592	-7.186750	-5.987100	0.998752	-0.025683	-0.042827	0.005928	0.912522	-0.408985	0.049585	0.408221	0.911535						
04464														-1.374970	-7.533575	-6.089843	0.999029	-0.032439	-0.029825	0.020636	0.942423	-0.333786	0.038936	0.332847	0.942177						
04465														-1.071660	-7.831527	-5.571681	0.998916	-0.041756	-0.020560	0.035137	0.966248	-0.255206	0.030523	0.254207	0.966668						
04466														-0.440075	-7.866191	-5.322643	0.998220	-0.057947	-0.014132	0.054517	0.982524	-0.177971	0.024198	0.176884	0.983934						
04467														-1.769652	-7.854621	-5.036117	0.996752	-0.079831	-0.010590	0.078250	0.991191	-0.106852	0.019027	0.105676	0.994219						
04468														-2.836179	-7.636397	-4.664394	0.995403	-0.095405	-0.008416	0.094931	0.994453	-0.045295	0.012691	0.044288	0.998938						
04469														-2.273022	-7.168691	-4.604174	0.995022	-0.099541	-0.004855	0.099553	0.995029	0.002458	0.004586	-0.002929	0.999985						
04470														-1.596919	-7.189394	-4.326057	0.995543	-0.094308	-0.000038	0.094257	0.994997	0.033110	-0.003085	-0.032966	0.999452						
04471														-0.859547	-6.699340	-4.518539	0.996525	-0.083130	0.005211	0.082811	0.995540	0.045195	-0.008945	-0.044606	0.998965						
04472														-0.309432	-6.500538	-4.734962	0.997326	-0.072303	0.010631	0.071829	0.996625	0.039749	-0.013469	-0.038879	0.999153						
04473														-0.190820	-6.349487	-4.974975	0.997841	-0.063642	0.016209	0.063306	0.997784	0.020494	-0.017478	-0.019424	0.999659						
04474														0.639813	-7.344440	-3.780069	0.998241	-0.055681	0.020379	0.055854	0.998407	-0.007988	-0.019901	0.009113	0.999760						
04475														-0.076803	-10.831823	0.866613	0.998190	-0.056241	0.021300	0.056839	0.997973	-0.028620	-0.019648	0.029779	0.999363						
04476														0.664036	-13.336668	4.982052	0.997279	-0.069891	0.023442	0.070773	0.996723	-0.039171	-0.020628	0.040723	0.998958						
04477														-2.566088	-14.208163	-1.616005	0.992674	-0.117430	0.028416	0.119050	0.990802	-0.064326	-0.020601	0.067237	0.997524						
04478														-5.347454	-6.785063	-3.428836	0.989670	-0.139371	0.033605	0.141892	0.985725	-0.090620	-0.020495	0.094452	0.995318						
04479														-1.958840	-9.116473	-4.617761	0.989923	-0.135728	0.040390	0.139678	0.982812	-0.120713	-0.023311	0.125138	0.991865						
04480														-0.260762	-9.748814	-4.645073	0.989308	-0.136774	0.050621	0.142746	0.979240	-0.143915	-0.029887	0.149603	0.988294						
04481														-0.069183	-9.963025	-5.316140	0.988737	-0.137409	0.059314	0.145392	0.975876	-0.162869	-0.035503	0.169658	0.984863						
04482														1.198115	-9.419968	-4.908317	0.987744	-0.141094	0.066737	0.150901	0.972508	-0.177364	-0.039877	0.185261	0.981880						
04483														-0.368648	-9.498043	-3.840948	0.985604	-0.151458	0.075134	0.163200	0.968362	-0.188790	-0.044163	0.198334	0.979139						
04484														-0.299954	-9.945582	-3.276644	0.984530	-0.155012	0.081682	0.168451	0.965664	-0.197784	-0.048218	0.208483	0.976837						
04485														0.740798	-9.534352	-4.223290	0.983733	-0.156980	0.087329	0.171921	0.963685	-0.204340	-0.052081	0.216030	0.974997						
04486														0.611877	-9.660595	-4.661884	0.983356	-0.157277	0.090968	0.173235	0.962572	-0.208435	-0.054781	0.220724	0.973797						
04487														0.752803	-9.746935	-4.848836	0.983543	-0.155483	0.092018	0.171772	0.962607	-0.209483	-0.056006	0.221842	0.973473						
04488														0.318547	-9.782149	-4.338224	0.983585	-0.155098	0.092224	0.171275	0.963316	-0.206610	-0.056796	0.219014	0.974067						
04489														-0.287209	-9.685259	-3.818521	0.983820	-0.153933	0.091664	0.169713	0.964666	-0.201534	-0.057402	0.213830	0.975183						
04490														-0.480097	-9.548551	-3.149576	0.984625	-0.149631	0.090135	0.164802	0.966792	-0.195330	-0.057914	0.207181	0.976587						
04491														0.005892	-9.384637	-2.610489	0.985948	-0.142206	0.087659	0.156624	0.969406	-0.189002	-0.058100	0.200075	0.978056						
04492														0.409998	-9.116738	-2.120433	0.986744	-0.137879	0.085590	0.151594	0.971380	-0.182865	-0.057927	0.193416	0.979405						
04493														0.108579	-9.305016	-1.887992	0.986677	-0.139057	0.084446	0.152239	0.972212	-0.177842	-0.057369	0.188328	0.980429						
04494														0.086063	-9.294193	-1.994590	0.986441	-0.141424	0.083266	0.154150	0.972538	-0.174380	-0.056318	0.184851	0.981152						
04495														0.213502	-9.068293	-1.642782	0.986654	-0.141179	0.081132	0.153420	0.972952	-0.172703	-0.054556	0.182846	0.981627						
04496														0.023243	-9.307146	-1.333919	0.987225	-0.139261	0.077413	0.150900	0.973164	-0.173728	-0.051142	0.183190	0.981746						
04497														0.072448	-9.470275	-1.321707	0.988285	-0.134547	0.072039	0.145430	0.973382	-0.177138	-0.046288	0.185539	0.981546						
04498														-0.233566	-9.674615	-1.423588	0.989569	-0.128317	0.065481	0.138314	0.973369	-0.182816	-0.040279	0.189966	0.980964						
04499														0.299832	-9.293666	-0.569702	0.991461	-0.117686	0.056164	0.126381	0.973320	-0.191512	-0.032127	0.196975	0.979882						
04500														1.682253	-8.604149	0.949819	0.993515	-0.104943	0.043761	0.111764	0.972109	-0.206188	-0.020902	0.209742	0.977533						
04501														2.418720	-8.541706	2.536371	0.994735	-0.098012	0.029940	0.102281	0.967798	-0.230012	-0.006432	0.231863	0.972727						
04502														1.569634	-9.950565	2.066567	0.994982	-0.098725	0.016246	0.099518	0.959787	-0.262498	0.010323	0.262798	0.964796						
04503														-1.006254	-10.493185	1.980590	0.995064	-0.099201	0.002753	0.095343	0.947936	-0.303853	0.027533	0.302615	0.952715						
04504														-2.997388	-11.926469	1.090035	0.995553	-0.093451	-0.011888	0.083196	0.931385	-0.354401	0.044192	0.351836	0.935018						
04505														-2.051469	-13.915444	0.281183	0.996741	-0.074224	-0.031596	0.054798	0.910418	-0.410043	0.059201	0.406975	0.911519						
04506														-2.430039	-13.111140	-1.991865	0.996833	-0.066767	-0.043193	0.038953	0.883525	-0.466762	0.069326	0.463601	0.883328						
04507														-3.920300	-12.536671	-5.108079	0.997376	-0.054249	-0.047939	0.021429	0.853733	-0.520270	0.069151	0.517877	0.852655						
04508														-2.503846	-11.439341	-7.833695	0.997908	-0.018505	-0.061948	-0.019723	0.825355	-0.564270	0.061571	0.564311	0.823263						
04509														-0.358633	-10.365353	-7.117560	0.997396	0.012670	-0.071000	-0.052601	0.801305	-0.595940	0.049342	0.598122	0.799884						
04510														0.783488	-9.026739	-5.430450	0.997576	0.027789	-0.063800	-0.060952	0.791305	-0.608377	0.033579	0.610790	0.791080						
04511														-2.158878	-7.278557	-5.456105	0.998677	0.029283	-0.042262	-0.048890	0.795314	-0.604223	0.015918	0.605490	0.795694						
04512														-2.769579	-6.475426	-5.563380	0.998670	0.039850	-0.032723	-0.051448	0.812560	-0.580603	0.003452	0.581514	0.813529						
04513														-1.691729	-6.780116	-5.713138	0.998369	0.049264	-0.028856	-0.057041	0.839148	-0.540903	-0.002433	0.541667	0.840590						
04514														-1.050484	-6.964837	-5.901928	0.998242	0.053709	-0.025079	-0.059122	0.871685	-0.486487	-0.004268	0.487115	0.873328						
04515														-1.466530	-7.541105	-5.784320	0.998601	0.049684	-0.018100	-0.052689	0.905956	-0.420081	-0.004473	0.420447	0.907306						
04516														-1.121386	-8.169685	-5.909783	0.999075	0.042088	-0.008791	-0.042532	0.937483	-0.345422	-0.006297	0.345477	0.938406						
04517														-0.065221	-7.789317	-5.745281	0.999798	0.019308	0.005576	-0.017103	0.963138	-0.268464	-0.010554	0.268314	0.963274						
04518														-1.015430	-7.822433	-5.624306	0.999543	-0.021324	0.021431	0.025079	0.980707	-0.193866	-0.016884	0.194314	0.980794						
04519														-2.762548	-7.882640	-5.258426	0.997891	-0.057172	0.030726	0.060589	0.990286	-0.125150	-0.023272	0.126748	0.991662						
04520														-2.555820	-7.931670	-4.602155	0.997054	-0.069664	0.032110	0.071615	0.995360	-0.064263	-0.027485	0.066373	0.997416						
04521														-1.385265	-7.589946	-3.975382	0.997321	-0.065919	0.031724	0.066359	0.997711	-0.013001	-0.030794	0.015072	0.999412						
04522														-0.430895	-6.719498	-3.385046	0.997453	-0.062146	0.035014	0.061310	0.997819	0.024480	-0.036459	-0.022270	0.999087						
04523														-0.047265	-5.832850	-3.347145	0.996954	-0.065892	0.041723	0.063964	0.996892	0.045988	-0.044624	-0.043179	0.998070						
04524														0.808631	-6.258382	-3.324015	0.996010	-0.074830	0.048632	0.072534	0.996240	0.047380	-0.051995	-0.043663	0.997692						
04525														0.902259	-5.678791	-5.376168	0.994263	-0.093543	0.051864	0.092711	0.995526	0.018244	-0.053338	-0.013331	0.998488						
04526														-0.333675	-10.127837	-0.311342	0.993472	-0.100636	0.053719	0.101448	0.994761	-0.012595	-0.052171	0.017962	0.998477						
04527														1.333761	-12.410286	-0.072347	0.989694	-0.128361	0.063473	0.130946	0.990646	-0.038377	-0.057954	0.046293	0.997245						
04528														-4.961731	-12.836027	-1.610500	0.985057	-0.158794	0.066687	0.163056	0.984524	-0.064228	-0.055456	0.074142	0.995705						
04529														-1.635506	-7.403004	-6.658641	0.984151	-0.162736	0.070454	0.169057	0.980949	-0.095696	-0.053539	0.106090	0.992914						
04530														0.090762	-8.903322	-5.888740	0.981975	-0.171746	0.078916	0.180697	0.975503	-0.125471	-0.055434	0.137469	0.988954						
04531														-0.735061	-10.550007	-4.746624	0.978522	-0.185644	0.089622	0.197474	0.968904	-0.149091	-0.059157	0.163587	0.984754						
04532														-1.511999	-10.669390	-4.445192	0.977170	-0.188642	0.097741	0.203029	0.964656	-0.167984	-0.062597	0.183993	0.980932						
04533														0.942835	-9.664123	-4.795031	0.976521	-0.188096	0.105009	0.204863	0.961596	-0.182659	-0.066618	0.199883	0.977553						
04534														1.191068	-9.683150	-4.772346	0.974301	-0.194734	0.113205	0.213840	0.957568	-0.193225	-0.070774	0.212467	0.974602						
04535														0.543766	-9.980875	-4.220255	0.973142	-0.197227	0.118724	0.218003	0.955220	-0.200075	-0.073947	0.220584	0.972561						
04536														1.253781	-9.942424	-4.183371	0.973547	-0.194238	0.120320	0.215671	0.955082	-0.203235	-0.075439	0.223808	0.971709						
04537														1.170013	-9.553460	-4.158519	0.973844	-0.192590	0.120572	0.214123	0.955400	-0.203378	-0.076026	0.223876	0.971648						
04538														0.438164	-9.505611	-3.864205	0.973923	-0.192296	0.120399	0.213644	0.955915	-0.201454	-0.076353	0.221923	0.972070						
04539														0.177779	-9.446032	-3.653738	0.974605	-0.189622	0.119119	0.210436	0.957418	-0.197656	-0.076567	0.217704	0.973007						
04540														0.085755	-9.450344	-2.629071	0.975805	-0.184719	0.116973	0.204770	0.959633	-0.192805	-0.076637	0.212093	0.974240						
04541														-0.390105	-9.055379	-1.868183	0.976557	-0.181372	0.115934	0.200950	0.961213	-0.188917	-0.077173	0.207785	0.975126						
04542														-0.322024	-9.027327	-1.675074	0.976977	-0.179096	0.115937	0.198564	0.962065	-0.187091	-0.078031	0.205805	0.975477						
04543														-0.075161	-9.261068	-1.903487	0.977971	-0.173740	0.115703	0.193207	0.963238	-0.186663	-0.079019	0.204906	0.975587						
04544														0.595561	-9.312892	-2.600088	0.979595	-0.165554	0.113954	0.184863	0.964681	-0.187660	-0.078862	0.204897	0.975601						
04545														0.879153	-9.304798	-2.775371	0.981490	-0.156243	0.110746	0.175192	0.966094	-0.189657	-0.077358	0.205548	0.975585						
04546														0.484691	-9.334870	-2.218109	0.983041	-0.148831	0.107142	0.167347	0.966984	-0.192188	-0.075001	0.206859	0.975492						
04547														0.482488	-9.341393	-1.941916	0.984917	-0.139563	0.102273	0.157495	0.967887	-0.195933	-0.071644	0.209085	0.975269						
04548														0.980247	-9.469799	-1.507602	0.986779	-0.130636	0.095922	0.147792	0.968217	-0.201775	-0.066514	0.213283	0.974724						
04549														0.657352	-9.359056	-0.526679	0.987802	-0.127085	0.089978	0.143594	0.966948	-0.210694	-0.060228	0.221044	0.973402						
04550														0.832363	-9.274694	0.050290	0.989196	-0.121341	0.082272	0.137023	0.964775	-0.224573	-0.052124	0.233420	0.970978						
04551														0.979481	-8.735888	0.578567	0.990233	-0.118013	0.074241	0.132805	0.960497	-0.244560	-0.042447	0.252031	0.966788						
04552														1.275777	-9.061258	1.053064	0.991133	-0.115803	0.065160	0.129302	0.953515	-0.272194	-0.030610	0.278206	0.960034						
04553														0.169139	-10.091289	1.043024	0.992109	-0.112898	0.054523	0.124266	0.943192	-0.308135	-0.016638	0.312479	0.949779						
04554														-1.462441	-11.569106	0.444303	0.992827	-0.111216	0.043881	0.119549	0.928520	-0.351510	-0.001651	0.354235	0.935155						
04555														-2.210134	-12.381676	0.123511	0.994058	-0.104068	0.031926	0.108099	0.909255	-0.401957	0.012802	0.403019	0.915102						
04556														-2.167770	-14.082274	-0.301962	0.995378	-0.094763	0.015603	0.091417	0.885097	-0.456339	0.029434	0.455656	0.889669						
04557														-3.151118	-13.269071	-3.589999	0.996266	-0.086334	0.000922	0.074739	0.857018	-0.509838	0.043226	0.508003	0.860270						
04558														-2.759139	-11.883591	-7.223881	0.997088	-0.075672	-0.009421	0.057621	0.828567	-0.556917	0.049949	0.554752	0.830515						
04559														0.152855	-9.780287	-8.900739	0.998111	-0.052534	-0.031859	0.023446	0.804980	-0.592838	0.056790	0.590971	0.804691						
04560														2.002006	-8.503016	-7.172824	0.998112	-0.036903	-0.049093	-0.001280	0.786677	-0.617364	0.061403	0.616261	0.785144						
04561														-0.711416	-8.294347	-5.148431	0.998239	-0.041045	-0.042825	0.005183	0.779546	-0.626324	0.059092	0.624999	0.778386						
04562														-2.003762	-6.619996	-5.417397	0.998497	-0.041035	-0.036334	0.009652	0.784210	-0.620421	0.053953	0.619137	0.783427						
04563														-1.690968	-6.980998	-5.741139	0.998705	-0.038558	-0.033192	0.010951	0.800038	-0.599849	0.049684	0.598709	0.799425						
04564														-1.526719	-6.755518	-5.935566	0.998966	-0.031893	-0.032386	0.007973	0.824407	-0.565941	0.044749	0.565097	0.823810						
04565														-1.352246	-6.792235	-5.938577	0.999220	-0.022430	-0.032491	0.002227	0.853652	-0.520839	0.039418	0.520360	0.853037						
04566														-0.680878	-7.040574	-6.070547	0.999434	-0.014256	-0.030466	-0.001648	0.883890	-0.467692	0.033596	0.467477	0.883367						
04567														-0.197583	-7.013673	-6.175660	0.999625	-0.019518	-0.019202	0.009944	0.912222	-0.409575	0.025510	0.409231	0.912074						
04568														-0.782309	-6.522462	-6.098221	0.999417	-0.033891	-0.004028	0.030360	0.936752	-0.348675	0.015590	0.348349	0.937235						
04569														-1.203353	-7.008553	-5.983086	0.998934	-0.045365	0.008506	0.045900	0.956987	-0.286477	0.004856	0.286562	0.958049						
04570														-1.112074	-7.173790	-5.859641	0.998547	-0.050815	0.017923	0.053547	0.972902	-0.224930	-0.006007	0.225563	0.974210						
04571														-1.130094	-7.161308	-5.668496	0.998303	-0.052167	0.025892	0.055769	0.984394	-0.166910	-0.016780	0.168071	0.985632						
04572														-0.809212	-6.908671	-5.425501	0.997969	-0.053396	0.034752	0.057105	0.991567	-0.116336	-0.028247	0.118084	0.992602						
04573														-0.590619	-6.887666	-5.232057	0.997494	-0.055420	0.043987	0.058673	0.995342	-0.076496	-0.039542	0.078885	0.996099						
04574														-0.214991	-6.957331	-4.834316	0.996864	-0.059659	0.051991	0.062176	0.996900	-0.048222	-0.048953	0.051303	0.997483						
04575														0.086441	-6.877999	-4.686915	0.996018	-0.067711	0.057994	0.069663	0.997047	-0.032311	-0.055635	0.036222	0.997794						
04576														0.515477	-7.366395	-4.080335	0.994975	-0.078639	0.061969	0.080536	0.996338	-0.028726	-0.059483	0.033573	0.997665						
04577														0.432705	-6.864531	-4.920707	0.992966	-0.098586	0.065573	0.101532	0.993893	-0.043224	-0.060911	0.049578	0.996911						
04578														0.598474	-13.896670	0.993849	0.991577	-0.110855	0.066981	0.114962	0.991500	-0.060922	-0.059658	0.068109	0.995893						
04579														-4.634205	-13.638151	-1.104255	0.986422	-0.150018	0.066830	0.155037	0.984857	-0.077596	-0.054177	0.086903	0.994743						
04580														-5.293678	-8.787708	-3.754652	0.983410	-0.167245	0.070236	0.173311	0.980594	-0.091647	-0.053546	0.102300	0.993311						
04581														-2.870563	-8.920501	-6.115366	0.983016	-0.166422	0.077348	0.174335	0.978489	-0.110302	-0.057328	0.121913	0.990884						
04582														-0.392353	-9.311985	-5.657489	0.983161	-0.161444	0.085616	0.171299	0.977374	-0.124085	-0.063647	0.136662	0.988571						
04583														0.167577	-10.537839	-3.996455	0.983590	-0.154453	0.093243	0.166055	0.977086	-0.133152	-0.070540	0.146450	0.986700						
04584														1.852956	-10.544518	-2.806341	0.984149	-0.146893	0.099366	0.159854	0.977397	-0.138356	-0.076797	0.152047	0.985385						
04585														1.452810	-9.724525	-3.339688	0.983166	-0.149527	0.105009	0.163640	0.976248	-0.141992	-0.081283	0.156786	0.984282						
04586														-0.201981	-9.814377	-3.247787	0.982642	-0.150188	0.108894	0.165136	0.975617	-0.144576	-0.084525	0.160049	0.983483						
04587														0.541448	-10.159790	-3.129376	0.983473	-0.143667	0.110186	0.158968	0.976474	-0.145697	-0.086661	0.160805	0.983174						
04588														0.403588	-9.876924	-3.045329	0.984160	-0.138382	0.110818	0.153698	0.977524	-0.144307	-0.088357	0.159053	0.983308						
04589														0.000655	-9.411336	-2.700773	0.985528	-0.128867	0.110128	0.143913	0.979371	-0.141849	-0.089576	0.155645	0.983743						
04590														0.283847	-9.588738	-2.877923	0.986650	-0.120695	0.109332	0.135348	0.981088	-0.138375	-0.090563	0.151326	0.984327						
04591														0.296853	-9.828643	-3.595190	0.987511	-0.114240	0.108497	0.128282	0.982813	-0.132747	-0.091467	0.145007	0.985194						
04592														0.926988	-9.587656	-3.425519	0.988272	-0.108862	0.107089	0.121946	0.984715	-0.124364	-0.091913	0.135964	0.986441						
04593														-0.057757	-9.410819	-2.623941	0.988635	-0.106971	0.105630	0.118937	0.986293	-0.114366	-0.091948	0.125629	0.987807						
04594														0.573274	-9.935008	-0.944651	0.989387	-0.102652	0.102836	0.113371	0.988045	-0.104468	-0.090882	0.115018	0.989197						
04595														0.853342	-8.506842	2.498633	0.990074	-0.099940	0.098823	0.109684	0.989059	-0.098646	-0.087883	0.108506	0.990204						
04596														2.014438	-8.124910	4.411033	0.990656	-0.098579	0.094252	0.108329	0.988594	-0.104631	-0.082862	0.113864	0.990035						
04597														1.550738	-9.220578	2.422015	0.990818	-0.101147	0.089716	0.111531	0.986551	-0.119491	-0.076423	0.128400	0.988774						
04598														0.537971	-9.251854	0.662883	0.991605	-0.099588	0.082471	0.110552	0.983779	-0.141267	-0.067064	0.149199	0.986530						
04599														0.692610	-9.890687	-0.690369	0.992807	-0.095065	0.072780	0.106154	0.980073	-0.167892	-0.055369	0.174410	0.983115						
04600														0.119341	-10.003529	-0.998269	0.993924	-0.091444	0.061264	0.101871	0.975018	-0.197386	-0.041684	0.202428	0.978410						
04601														-0.210533	-9.341211	-0.215625	0.995085	-0.086599	0.048018	0.095403	0.968343	-0.230675	-0.026522	0.234122	0.971845						
04602														0.602926	-8.743965	1.215760	0.995966	-0.083250	0.033477	0.089218	0.958547	-0.270606	-0.009562	0.272501	0.962108						
04603														0.525318	-9.857161	2.645234	0.996130	-0.085675	0.019597	0.087420	0.942922	-0.321333	0.009052	0.321803	0.946763						
04604														-2.359186	-12.565191	2.084463	0.995688	-0.092199	0.010273	0.089142	0.920209	-0.381142	0.025688	0.380415	0.924459						
04605														-3.502788	-13.577903	-1.593183	0.995886	-0.090617	-0.000129	0.081229	0.893343	-0.441974	0.040166	0.440145	0.897028						
04606														-3.778124	-12.388569	-4.516448	0.996741	-0.078677	-0.017789	0.059222	0.863514	-0.500835	0.054765	0.498149	0.865360						
04607														-0.146751	-11.710603	-7.525637	0.997215	-0.067167	-0.032402	0.038080	0.832217	-0.553140	0.064118	0.550366	0.832458						
04608														1.051837	-11.609210	-7.461162	0.997217	-0.059199	-0.045319	0.020547	0.802547	-0.596234	0.071667	0.593644	0.801530						
04609														-0.887135	-10.857593	-5.921338	0.996686	-0.064681	-0.049332	0.019660	0.779999	-0.625472	0.078935	0.622430	0.778685						
04610														-2.157460	-8.245042	-6.117884	0.996305	-0.071661	-0.047338	0.025161	0.770534	-0.636902	0.082116	0.633358	0.769490						
04611														-2.727011	-6.885126	-6.173491	0.996336	-0.070305	-0.048696	0.023778	0.774663	-0.631927	0.082151	0.628454	0.773497						
04612														-1.442171	-6.314772	-6.288373	0.996589	-0.063321	-0.052931	0.017870	0.791700	-0.610648	0.080572	0.607619	0.790131						
04613														-0.976604	-6.412475	-6.054030	0.996836	-0.059889	-0.052265	0.018971	0.817770	-0.575232	0.077191	0.572420	0.816319						
04614														-0.958067	-6.206758	-6.061820	0.997029	-0.061630	-0.046201	0.028098	0.849503	-0.526835	0.071717	0.523972	0.848711						
04615														-1.266312	-6.279466	-6.017871	0.996970	-0.068743	-0.036398	0.043899	0.883550	-0.466276	0.064213	0.463265	0.883890						
04616														-1.273173	-6.569608	-6.171742	0.996562	-0.079148	-0.024507	0.063119	0.916826	-0.394266	0.053674	0.391363	0.918670						
04617														-0.543439	-6.883027	-6.523284	0.995411	-0.095086	-0.010738	0.086952	0.945647	-0.313353	0.039950	0.310982	0.949576						
04618														-0.534632	-7.286371	-6.567806	0.993164	-0.116650	0.004351	0.114563	0.966890	-0.228033	0.022393	0.226972	0.973644						
04619														-1.172252	-7.400419	-6.491084	0.989965	-0.140090	0.018536	0.141295	0.979294	-0.144983	0.002158	0.146147	0.989261						
04620														-2.581389	-7.380032	-6.008721	0.987943	-0.152114	0.028805	0.153803	0.985596	-0.070328	-0.017692	0.073911	0.997108						
04621														-2.204510	-7.139826	-5.247499	0.989936	-0.136757	0.036404	0.137207	0.990490	-0.010172	-0.034666	0.015065	0.999285						
04622														0.251787	-6.103536	-4.610914	0.992877	-0.110368	0.044868	0.109101	0.993584	0.029784	-0.047868	-0.024676	0.998549						
04623														1.917902	-6.293814	-4.213473	0.993857	-0.096511	0.054172	0.094286	0.994649	0.042232	-0.057958	-0.036865	0.997638						
04624														0.038457	-5.890230	-6.847966	0.992062	-0.112652	0.055880	0.112095	0.993612	0.013020	-0.056989	-0.006653	0.998353						
04625														-1.569486	-12.369205	1.158073	0.990416	-0.127005	0.054272	0.127983	0.991664	-0.014931	-0.051923	0.021734	0.998415						
04626														-0.839588	-11.509610	-0.392279	0.985242	-0.160278	0.060082	0.162650	0.985994	-0.036880	-0.053329	0.046108	0.997512						
04627														-5.070237	-12.034860	-1.381059	0.979850	-0.187877	0.067792	0.191760	0.979834	-0.056160	-0.055874	0.068028	0.996118						
04628														-1.288606	-8.319412	-5.998373	0.981861	-0.175652	0.071377	0.181488	0.979650	-0.085723	-0.054867	0.097123	0.993759						
04629														1.599412	-8.977845	-5.338410	0.982252	-0.170632	0.077888	0.178693	0.977502	-0.112069	-0.057013	0.123998	0.990643						
04630														0.899769	-10.367068	-4.266176	0.979601	-0.181030	0.087232	0.191389	0.972811	-0.130420	-0.061251	0.144455	0.987614						
04631														-0.625621	-10.441883	-4.362923	0.976769	-0.191972	0.095227	0.204218	0.968544	-0.142187	-0.064936	0.158331	0.985248						
04632														-0.397227	-9.422743	-3.853465	0.975579	-0.194964	0.101166	0.208792	0.966153	-0.151508	-0.068203	0.168930	0.983265						
04633														-0.057420	-9.673357	-3.529059	0.974735	-0.196034	0.107067	0.211498	0.964174	-0.160118	-0.071843	0.178717	0.981274						
04634														0.460422	-10.154008	-3.296193	0.974056	-0.196300	0.112613	0.213243	0.962749	-0.166258	-0.075781	0.185958	0.979631						
04635														0.725927	-9.980085	-3.892919	0.974275	-0.193199	0.116030	0.211082	0.962661	-0.169493	-0.078951	0.189624	0.978677						
04636														0.872786	-9.691062	-4.338023	0.975352	-0.187102	0.116969	0.205283	0.963814	-0.170060	-0.080918	0.189880	0.978467						
04637														0.069674	-9.672749	-4.040506	0.976568	-0.180717	0.116864	0.198771	0.965558	-0.167891	-0.082498	0.187187	0.978854						
04638														0.035446	-9.815508	-4.000499	0.978460	-0.170953	0.115720	0.188484	0.968453	-0.163011	-0.084202	0.181311	0.979814						
04639														0.355634	-9.427943	-3.133256	0.980306	-0.161148	0.114157	0.177845	0.971687	-0.155551	-0.085858	0.172790	0.981209						
04640														0.354854	-9.314267	-2.423730	0.981487	-0.154437	0.113282	0.170303	0.974333	-0.147215	-0.087639	0.163782	0.982596						
04641														0.565839	-9.535665	-2.291409	0.981999	-0.151372	0.112978	0.166452	0.976231	-0.138805	-0.089281	0.155112	0.983854						
04642														-0.003620	-9.437124	-2.204883	0.981932	-0.151632	0.113210	0.165965	0.977489	-0.130270	-0.090909	0.146706	0.984994						
04643														-0.472929	-9.338243	-1.973028	0.982442	-0.148488	0.112959	0.162025	0.979219	-0.121979	-0.092499	0.138139	0.986084						
04644														0.405439	-9.502388	-1.410240	0.983634	-0.141467	0.111587	0.154167	0.981348	-0.114843	-0.093259	0.130166	0.987097						
04645														1.605546	-9.033305	0.165658	0.984457	-0.137650	0.109073	0.149626	0.982548	-0.110503	-0.091959	0.125106	0.987873						
04646														1.297559	-8.778574	1.662379	0.985485	-0.133255	0.105178	0.144939	0.983012	-0.112609	-0.088385	0.126219	0.988057						
04647														1.327651	-10.223520	0.653723	0.986560	-0.129272	0.099941	0.140933	0.982709	-0.120088	-0.082689	0.132559	0.987720						
04648														0.115456	-9.922800	-0.189155	0.987990	-0.123870	0.092371	0.135359	0.982132	-0.130748	-0.074525	0.141681	0.987103						
04649														0.615608	-8.831090	-0.175711	0.990158	-0.113362	0.082069	0.124442	0.981474	-0.145677	-0.064035	0.154457	0.985922						
04650														2.182613	-9.949212	0.097343	0.992095	-0.103964	0.070271	0.114245	0.979977	-0.163076	-0.051910	0.169815	0.984108						
04651														1.054847	-9.425716	2.017988	0.993575	-0.097810	0.056933	0.106773	0.976914	-0.185039	-0.037520	0.189929	0.981081						
04652														1.053572	-7.591671	4.655210	0.995398	-0.087064	0.040029	0.093796	0.970752	-0.221002	-0.019617	0.223740	0.974451						
04653														0.538710	-8.279979	4.532462	0.996008	-0.085617	0.025254	0.089260	0.957788	-0.273266	-0.000792	0.274429	0.961607						
04654														-2.857811	-11.261367	1.886793	0.996060	-0.087195	0.016156	0.087526	0.937362	-0.337182	0.014256	0.337267	0.941301						
04655														-3.784332	-15.559119	-1.918831	0.997090	-0.076221	0.001532	0.070351	0.912184	-0.403697	0.029372	0.402630	0.914892						
04656														-3.014860	-13.582595	-5.829339	0.997666	-0.066379	-0.016031	0.051465	0.885181	-0.462392	0.044883	0.460487	0.886531						
04657														-1.732028	-11.990200	-6.395023	0.997876	-0.055423	-0.034229	0.030096	0.858269	-0.512317	0.057772	0.510199	0.858114						
04658														2.431962	-12.419943	-5.261183	0.997249	-0.058759	-0.045183	0.024594	0.837348	-0.546117	0.069923	0.543503	0.836490						
04659														-2.506164	-9.466096	-5.322915	0.995851	-0.082284	-0.038871	0.046156	0.824818	-0.563511	0.078429	0.559379	0.825193						
04660														-3.527760	-8.024032	-5.170367	0.995027	-0.088421	-0.045854	0.047516	0.825991	-0.561676	0.087539	0.556705	0.826085						
04661														-1.159629	-7.812445	-5.499079	0.994419	-0.087842	-0.058438	0.042144	0.838505	-0.543262	0.096722	0.537767	0.837527						
04662														-0.341443	-8.007691	-5.545305	0.993523	-0.094622	-0.062924	0.049370	0.858177	-0.510974	0.102349	0.504557	0.857290						
04663														-0.388254	-7.693515	-5.402045	0.992310	-0.110818	-0.055133	0.072482	0.881326	-0.466916	0.100333	0.459330	0.882581						
04664														-1.513498	-7.955253	-5.261693	0.990491	-0.131453	-0.040581	0.103188	0.904955	-0.412806	0.090989	0.404694	0.909914						
04665														-2.223219	-8.007470	-5.005503	0.988956	-0.145994	-0.025545	0.127949	0.927960	-0.350026	0.074807	0.342892	0.936391						
04666														-1.824294	-7.581904	-5.459610	0.988621	-0.150034	-0.010893	0.141012	0.949519	-0.280230	0.052387	0.275505	0.959871						
04667														-0.689027	-7.711384	-5.289407	0.989170	-0.146693	0.004903	0.144503	0.967462	-0.207694	0.025724	0.206153	0.978182						
04668														-0.380151	-7.497070	-5.413963	0.989063	-0.145714	0.022860	0.147477	0.979525	-0.137044	-0.002422	0.138917	0.990301						
04669														-1.230862	-7.311731	-5.521940	0.989049	-0.141961	0.040356	0.144602	0.986828	-0.072537	-0.029527	0.077578	0.996549						
04670														-1.727273	-6.485126	-5.410325	0.990559	-0.125452	0.055277	0.126673	0.991760	-0.019150	-0.052419	0.025972	0.998287						
04671														-0.681404	-5.501745	-5.110114	0.993130	-0.095659	0.067398	0.094796	0.995370	0.015894	-0.068607	-0.009396	0.997600						
04672														1.384476	-6.185110	-4.490160	0.994315	-0.072341	0.078137	0.070175	0.997080	0.030119	-0.080088	-0.024464	0.996488						
04673														1.044038	-4.973237	-6.546356	0.993684	-0.076974	0.081651	0.076286	0.997020	0.011514	-0.082294	-0.005212	0.996594						
04674														3.130512	-10.518095	-1.614532	0.993065	-0.086017	0.080147	0.088215	0.995805	-0.024285	-0.077722	0.031186	0.996487						
04675														-2.025482	-14.518686	-1.990862	0.984868	-0.152411	0.082494	0.156703	0.986464	-0.048297	-0.074016	0.060493	0.995421						
04676														-5.293902	-9.836315	-3.633982	0.978490	-0.186641	0.087874	0.193119	0.978525	-0.072065	-0.072536	0.087485	0.993521						
04677														-3.121736	-9.182858	-4.180589	0.979409	-0.180737	0.089957	0.189471	0.976732	-0.100472	-0.069705	0.115448	0.990865						
04678														0.469448	-8.921469	-5.776222	0.981042	-0.170165	0.092736	0.181173	0.975191	-0.127196	-0.068791	0.141586	0.987533						
04679														0.860529	-10.174418	-5.092510	0.980175	-0.171546	0.099142	0.184924	0.971711	-0.146904	-0.071136	0.162325	0.984170						
04680														0.760018	-10.323836	-5.083859	0.979154	-0.174103	0.104619	0.189339	0.968823	-0.159792	-0.073537	0.176269	0.981591						
04681														0.774380	-9.736953	-4.941266	0.978403	-0.176230	0.108030	0.192779	0.966537	-0.169238	-0.074590	0.186409	0.979637						
04682														-0.123063	-9.959999	-4.559560	0.977768	-0.178332	0.110307	0.195726	0.964928	-0.174942	-0.075241	0.192642	0.978380						
04683														-0.287738	-10.115199	-4.211048	0.977844	-0.176705	0.112235	0.194610	0.964890	-0.176394	-0.077124	0.194328	0.977900						
04684														0.080757	-9.945101	-4.535320	0.978043	-0.174480	0.113972	0.192557	0.965743	-0.173959	-0.079715	0.192085	0.978135						
04685														-0.059088	-9.649955	-4.727921	0.979558	-0.166075	0.113510	0.183690	0.968483	-0.168223	-0.081995	0.185635	0.979192						
04686														0.844416	-9.659051	-4.058517	0.982159	-0.152074	0.110620	0.168588	0.972668	-0.159672	-0.083315	0.175472	0.980953						
04687														0.681232	-9.431517	-3.430812	0.983529	-0.144278	0.108876	0.159540	0.976072	-0.147749	-0.084954	0.162685	0.983014						
04688														-0.737303	-9.100556	-2.719188	0.983640	-0.143690	0.108652	0.157611	0.978532	-0.132789	-0.087239	0.147741	0.985171						
04689														-0.462421	-9.014262	-2.483346	0.983358	-0.144847	0.109662	0.157569	0.980440	-0.117937	-0.090435	0.133254	0.986947						
04690														-0.245957	-9.373888	-1.889979	0.982461	-0.149354	0.111644	0.160975	0.981513	-0.103529	-0.094118	0.119685	0.988341						
04691														0.224176	-9.413970	-1.149557	0.982493	-0.148293	0.112769	0.158839	0.983093	-0.091098	-0.097353	0.107416	0.989436						
04692														0.777787	-9.954033	-0.260155	0.983768	-0.140781	0.111272	0.150216	0.985289	-0.081485	-0.098164	0.096877	0.990444						
04693														1.961953	-8.850774	2.412513	0.985526	-0.131877	0.106521	0.140436	0.987069	-0.077282	-0.094952	0.091123	0.991303						
04694														2.229459	-8.058779	5.981200	0.987284	-0.124334	0.099049	0.132965	0.987392	-0.085897	-0.087120	0.097974	0.991368						
04695														2.085817	-9.484525	4.839251	0.989410	-0.114414	0.089315	0.123681	0.986620	-0.106229	-0.075966	0.116151	0.990322						
04696														0.864642	-9.188538	2.211937	0.991203	-0.107190	0.077639	0.116883	0.984130	-0.133512	-0.062095	0.141412	0.988001						
04697														1.171224	-8.413502	0.540786	0.992897	-0.100547	0.063607	0.109962	0.979650	-0.167910	-0.045430	0.173712	0.983748						
04698														2.626928	-8.141946	1.228023	0.994015	-0.098552	0.047130	0.106348	0.971636	-0.211219	-0.024977	0.214967	0.976302						
04699														0.761322	-8.645825	1.648756	0.994097	-0.103587	0.032269	0.108437	0.958436	-0.263899	-0.003592	0.265840	0.964010						
04700														-2.600085	-10.773736	-0.224005	0.994703	-0.101133	0.018394	0.101654	0.941253	-0.322039	0.015256	0.322203	0.946548						
04701														-3.696597	-12.726697	-2.223369	0.995939	-0.090027	-0.000165	0.083109	0.920108	-0.382746	0.034609	0.381178	0.923854						
04702														-4.939345	-13.388489	-3.642261	0.996703	-0.079177	-0.017724	0.063165	0.894303	-0.442980	0.050924	0.440400	0.896356						
04703														-3.826735	-12.951871	-4.203202	0.997322	-0.063654	-0.036023	0.037196	0.865484	-0.499554	0.062976	0.496876	0.865534						
04704														-2.026930	-12.459838	-5.716923	0.997119	-0.053611	-0.053660	0.015463	0.836241	-0.548144	0.074260	0.545735	0.834661						
04705														-0.402259	-10.388117	-8.092958	0.996505	-0.050546	-0.066507	0.001829	0.809170	-0.587572	0.083515	0.585397	0.806434						
04706														0.211136	-8.984175	-8.144430	0.995952	-0.055407	-0.070782	-0.000257	0.785679	-0.618635	0.089888	0.616149	0.782484						
04707														-0.923876	-8.847200	-5.580674	0.995645	-0.067951	-0.063830	0.012023	0.772531	-0.634863	0.092451	0.631331	0.769983						
04708														-1.818374	-6.924170	-5.881551	0.995587	-0.081869	-0.045872	0.034495	0.773849	-0.632431	0.087274	0.628057	0.773258						
04709														-3.288663	-6.781304	-5.374897	0.995701	-0.084569	-0.037781	0.043721	0.788713	-0.613205	0.081657	0.608917	0.789020						
04710														-1.629744	-6.779418	-5.906758	0.996245	-0.076516	-0.040509	0.039143	0.815419	-0.577547	0.077224	0.573793	0.815352						
04711														-0.373376	-7.208851	-6.139953	0.996761	-0.068347	-0.042380	0.035792	0.848937	-0.527281	0.072016	0.524057	0.848633						
04712														-0.199741	-6.659141	-6.110414	0.996718	-0.073282	-0.034394	0.048908	0.883687	-0.465515	0.064507	0.462305	0.884371						
04713														-1.781686	-6.970509	-5.750773	0.995932	-0.087770	-0.020396	0.072553	0.915314	-0.396152	0.053439	0.393061	0.917958						
04714														-1.980567	-7.592440	-5.345939	0.995144	-0.098014	-0.009072	0.089915	0.942666	-0.321396	0.040053	0.319020	0.946901						
04715														-0.848889	-8.106429	-4.948118	0.995031	-0.099528	-0.002900	0.095771	0.964623	-0.245622	0.027244	0.244123	0.969361						
04716														-0.320995	-8.239928	-4.581365	0.994741	-0.102409	0.001672	0.101121	0.979377	-0.174915	0.016275	0.174164	0.984582						
04717														-0.877061	-7.659265	-4.752683	0.994217	-0.107162	0.006931	0.107253	0.987718	-0.113625	0.005331	0.113711	0.993500						
04718														-0.724104	-7.508380	-4.680599	0.994095	-0.107671	0.013508	0.108320	0.992047	-0.064110	-0.006498	0.065195	0.997851						
04719														-0.358683	-6.981400	-4.634713	0.993895	-0.108185	0.021658	0.108791	0.993640	-0.029066	-0.018376	0.031245	0.999343						
04720														-0.404233	-6.629045	-5.191024	0.993553	-0.109253	0.030263	0.109611	0.993920	-0.010403	-0.028942	0.013653	0.999488						
04721														-0.554127	-6.727074	-5.441626	0.993354	-0.108523	0.038343	0.108815	0.994046	-0.005614	-0.037505	0.009749	0.999249						
04722														0.570237	-6.529461	-5.535459	0.993071	-0.108204	0.045850	0.108946	0.993949	-0.013997	-0.044058	0.018895	0.998850						
04723														0.801566	-6.470919	-4.796325	0.991992	-0.115274	0.051613	0.117413	0.992256	-0.040522	-0.046542	0.046257	0.997845						
04724														-2.990913	-15.400301	1.526806	0.990932	-0.125687	0.047506	0.128651	0.989522	-0.065540	-0.038771	0.071058	0.996718						
04725														-1.386542	-11.636587	-1.630695	0.987402	-0.150474	0.048932	0.154421	0.983843	-0.090588	-0.034511	0.097003	0.994686						
04726														-4.360967	-8.957337	-2.814950	0.983665	-0.170244	0.058480	0.176163	0.977227	-0.118298	-0.037008	0.126667	0.991255						
04727														-2.112551	-7.680546	-4.906366	0.983225	-0.169624	0.067050	0.177863	0.973101	-0.146419	-0.040410	0.155889	0.986948						
04728														0.200476	-7.693800	-5.415801	0.982969	-0.167581	0.075423	0.178307	0.969051	-0.170722	-0.044479	0.181263	0.982428						
04729														1.029400	-9.494666	-4.271500	0.982625	-0.165754	0.083507	0.178940	0.965512	-0.189122	-0.049280	0.200779	0.978396						
04730														2.341268	-10.801825	-3.740675	0.981618	-0.168645	0.089360	0.183776	0.961547	-0.204091	-0.051505	0.216762	0.974865						
04731														1.369707	-9.912277	-3.945199	0.978551	-0.182369	0.095812	0.199386	0.955391	-0.217886	-0.051802	0.232316	0.971260						
04732														-0.341494	-9.678160	-4.779375	0.976483	-0.191019	0.099964	0.209469	0.950335	-0.230188	-0.051029	0.245714	0.967998						
04733														-0.061525	-9.823257	-5.459375	0.976141	-0.191964	0.101485	0.211232	0.947767	-0.238995	-0.050305	0.254730	0.965703						
04734														0.865685	-9.844225	-5.975401	0.976127	-0.191862	0.101806	0.211456	0.946537	-0.243628	-0.049620	0.259339	0.964511						
04735														0.580612	-9.728323	-5.787187	0.975620	-0.194387	0.101882	0.213895	0.946128	-0.243084	-0.049142	0.258950	0.964640						
04736														0.106203	-9.570704	-5.313930	0.975409	-0.196141	0.100525	0.214987	0.947193	-0.237920	-0.048551	0.253681	0.966069						
04737														0.098927	-9.425064	-5.328863	0.975221	-0.197992	0.098706	0.215845	0.949383	-0.228215	-0.048525	0.243866	0.968594						
04738														-0.340926	-9.362487	-4.776742	0.975591	-0.197457	0.096093	0.214025	0.952922	-0.214785	-0.049159	0.230109	0.971922						
04739														-0.970240	-9.296832	-4.405345	0.976463	-0.194518	0.093178	0.209666	0.957406	-0.198528	-0.050592	0.213392	0.975656						
04740														-2.006275	-9.342691	-2.840132	0.978142	-0.187121	0.090690	0.200960	0.962716	-0.181091	-0.053423	0.195357	0.979276						
04741														-0.760382	-9.365469	-1.549719	0.979892	-0.178425	0.089309	0.191215	0.967600	-0.164887	-0.056995	0.178649	0.982261						
04742														0.426285	-9.275116	-1.386664	0.980927	-0.172905	0.088805	0.184791	0.971238	-0.150163	-0.060287	0.163710	0.984665						
04743														0.771521	-9.582460	-2.007620	0.982256	-0.166318	0.086670	0.177093	0.974654	-0.136702	-0.061737	0.149626	0.986813						
04744														0.752007	-9.245255	-0.479529	0.984719	-0.154321	0.080702	0.163668	0.978425	-0.126088	-0.059502	0.137370	0.988731						
04745														2.417349	-6.872111	4.294637	0.987763	-0.138678	0.071364	0.146761	0.981317	-0.124412	-0.052777	0.133363	0.989661						
04746														2.274107	-7.692702	6.476937	0.988839	-0.134925	0.063188	0.142594	0.979986	-0.138903	-0.043182	0.146363	0.988288						
04747														1.277670	-9.531264	4.832575	0.990390	-0.128167	0.051978	0.135156	0.976638	-0.167068	-0.029351	0.172487	0.984574						
04748														3.576142	-9.966505	3.582325	0.991292	-0.126418	0.036853	0.131317	0.969828	-0.205399	-0.009775	0.208450	0.977984						
04749														0.548491	-8.949187	2.290657	0.990359	-0.136508	0.023569	0.137993	0.957224	-0.254324	0.012156	0.255124	0.966832						
04750														-3.137162	-10.613122	0.501362	0.990582	-0.136449	0.011311	0.133117	0.940466	-0.312736	0.032035	0.311297	0.949773						
04751														-4.114367	-14.499017	-1.723636	0.992470	-0.122361	-0.005587	0.111446	0.920989	-0.373308	0.050824	0.369875	0.927691						
04752														-4.000502	-14.018770	-3.779608	0.993451	-0.112171	-0.021725	0.091957	0.897831	-0.430631	0.067810	0.425813	0.902266						
04753														-3.931918	-11.631520	-5.854949	0.994143	-0.103484	-0.031158	0.075731	0.872734	-0.482287	0.077102	0.477103	0.875459						
04754														-1.638034	-10.329119	-7.724694	0.995128	-0.088874	-0.042679	0.053235	0.848737	-0.526129	0.082982	0.521294	0.849333						
04755														0.838417	-10.586866	-6.575422	0.995313	-0.083118	-0.049436	0.041338	0.827793	-0.559509	0.087428	0.554842	0.827349						
04756														-1.193691	-9.561693	-5.325986	0.994708	-0.094679	-0.039889	0.054500	0.815399	-0.576328	0.087092	0.571104	0.816244						
04757														-3.791059	-9.023061	-5.266263	0.994246	-0.103016	-0.029357	0.067248	0.813615	-0.577502	0.083377	0.572205	0.815861						
04758														-3.809296	-7.805679	-5.061954	0.995179	-0.092903	-0.031420	0.059241	0.824777	-0.562346	0.078158	0.557774	0.826305						
04759														-1.313540	-7.920123	-4.852927	0.996419	-0.076176	-0.036707	0.044869	0.844254	-0.534062	0.071673	0.530502	0.844648						
04760														-0.095264	-7.844365	-4.857378	0.997073	-0.067867	-0.035198	0.041630	0.868127	-0.494593	0.064123	0.491681	0.868411						
04761														-0.790209	-7.335276	-4.737386	0.997249	-0.068839	-0.027504	0.049443	0.894111	-0.445107	0.055232	0.442523	0.895055						
04762														-1.422194	-7.496289	-4.564821	0.997230	-0.071893	-0.019065	0.058950	0.920279	-0.386797	0.045354	0.384602	0.921968						
04763														-1.442896	-7.632028	-4.558600	0.997311	-0.072372	-0.011517	0.064872	0.944983	-0.320622	0.034087	0.319013	0.947137						
04764														-1.045875	-7.566879	-4.412228	0.997459	-0.071160	-0.003447	0.068067	0.966157	-0.248810	0.021036	0.247944	0.968546						
04765														-0.352871	-7.087727	-4.503278	0.997222	-0.074193	0.006595	0.074191	0.981520	-0.176393	0.006614	0.176392	0.984298						
04766														-0.179391	-7.238318	-4.994797	0.996023	-0.087297	0.017799	0.088725	0.990052	-0.109198	-0.008089	0.110343	0.993861						
04767														-0.668839	-7.804326	-5.740117	0.994429	-0.102314	0.025347	0.103533	0.993233	-0.052626	-0.019791	0.054957	0.998293						
04768														-0.707670	-7.779769	-5.464649	0.993731	-0.107981	0.028956	0.108288	0.994077	-0.009234	-0.027788	0.012311	0.999538						
04769														-0.396210	-6.458362	-5.107897	0.993846	-0.105980	0.032213	0.105466	0.994273	0.017261	-0.033858	-0.013758	0.999332						
04770														-0.980760	-5.822759	-4.869890	0.994229	-0.100434	0.037699	0.099466	0.994682	0.026734	-0.040184	-0.022830	0.998931						
04771														-0.451329	-5.614338	-4.654176	0.995288	-0.085898	0.044978	0.084961	0.996134	0.022338	-0.046723	-0.018411	0.998738						
04772														2.200311	-6.687928	-1.216993	0.997077	-0.061003	0.046010	0.061026	0.998136	0.000894	-0.045979	0.001917	0.998941						
04773														4.195717	-19.330904	-1.288793	0.993539	-0.102600	0.048516	0.104056	0.994163	-0.028488	-0.045310	0.033352	0.998416						
04774														-5.450491	-9.704818	-4.248714	0.984343	-0.168617	0.051348	0.171304	0.983770	-0.053398	-0.041511	0.061358	0.997252						
04775														-6.133611	-7.294455	-6.769439	0.979724	-0.191157	0.060004	0.195513	0.977605	-0.077871	-0.043775	0.088023	0.995156						
04776														-2.085785	-10.155631	-6.494745	0.980514	-0.184749	0.066779	0.190744	0.976670	-0.098657	-0.046994	0.109472	0.992878						
04777														0.715888	-10.743374	-5.160584	0.981893	-0.174978	0.072586	0.182377	0.976781	-0.112417	-0.051230	0.123619	0.991006						
04778														1.325598	-10.976392	-4.213352	0.980671	-0.178358	0.080455	0.187056	0.975226	-0.118086	-0.057401	0.130853	0.989739						
04779														0.027528	-9.742520	-3.865539	0.978862	-0.184760	0.087713	0.194479	0.973594	-0.119554	-0.063308	0.134085	0.988946						
04780														-0.492289	-9.269616	-3.176926	0.977618	-0.188348	0.093741	0.198911	0.972618	-0.120206	-0.068534	0.136162	0.988313						
04781														-0.631868	-9.887748	-2.330016	0.977724	-0.185016	0.099120	0.196338	0.973134	-0.120254	-0.074208	0.137036	0.987783						
04782														0.686791	-10.189418	-2.443286	0.978104	-0.180432	0.103717	0.192264	0.974172	-0.118423	-0.079670	0.135771	0.987532						
04783														0.622738	-9.688860	-2.042443	0.978165	-0.178046	0.107209	0.190096	0.974980	-0.115225	-0.084011	0.133089	0.987537						
04784														0.858929	-9.379198	-1.876764	0.978431	-0.175358	0.109193	0.187417	0.975852	-0.112194	-0.086882	0.130239	0.987669						
04785														0.524121	-9.622945	-2.063353	0.978177	-0.175593	0.111069	0.187590	0.976206	-0.108771	-0.089327	0.127232	0.987842						
04786														-0.338857	-9.769351	-1.935752	0.978118	-0.175093	0.112374	0.186878	0.976793	-0.104650	-0.091443	0.123360	0.988140						
04787														0.044307	-9.401419	-2.146824	0.978791	-0.170973	0.112859	0.182450	0.978049	-0.100663	-0.093171	0.119119	0.988499						
04788														0.382843	-9.671475	-2.242156	0.979065	-0.168649	0.113967	0.179861	0.978948	-0.096492	-0.095295	0.114971	0.988787						
04789														-0.318850	-10.014727	-2.199377	0.979645	-0.164913	0.114455	0.175748	0.980122	-0.092051	-0.096999	0.110293	0.989155						
04790														-0.515782	-10.228250	-2.212720	0.980893	-0.157211	0.114602	0.167563	0.982009	-0.087074	-0.098851	0.104613	0.989588						
04791														-0.232923	-9.662994	-2.027986	0.982817	-0.145165	0.114005	0.154860	0.984583	-0.081328	-0.100441	0.097585	0.990146						
04792														0.672328	-9.708679	-1.290995	0.984479	-0.134567	0.112666	0.143505	0.986776	-0.075359	-0.101036	0.090358	0.990771						
04793														1.319762	-9.337092	0.348390	0.986287	-0.123805	0.109133	0.132007	0.988673	-0.071418	-0.099055	0.084845	0.991458						
04794														2.616579	-8.475364	2.178656	0.987922	-0.115504	0.103288	0.123358	0.989660	-0.073180	-0.093767	0.085038	0.991956						
04795														1.847803	-8.417396	3.363451	0.989242	-0.110487	0.095883	0.118613	0.989411	-0.083646	-0.085626	0.094119	0.991872						
04796														1.670852	-9.255862	2.595805	0.990928	-0.103323	0.085941	0.112012	0.988321	-0.103320	-0.074262	0.112009	0.990928						
04797														1.596685	-9.864940	0.402401	0.992177	-0.100672	0.073825	0.109574	0.985629	-0.128567	-0.059821	0.135650	0.988949						
04798														1.344872	-9.297305	0.126734	0.993481	-0.097802	0.058561	0.105971	0.981692	-0.158273	-0.042009	0.163447	0.985657						
04799														1.566433	-8.821982	1.226200	0.994963	-0.091842	0.040160	0.097944	0.975984	-0.194584	-0.021324	0.197537	0.980063						
04800														-0.105461	-8.982061	1.768098	0.995819	-0.088476	0.022712	0.091341	0.966641	-0.239294	-0.000783	0.240368	0.970682						
04801														-2.432438	-10.598338	0.730339	0.996475	-0.083584	0.007180	0.082041	0.953036	-0.291532	0.017525	0.291093	0.956534						
04802														-2.981283	-12.707403	-0.566519	0.997240	-0.073390	-0.011223	0.064871	0.934853	-0.349058	0.036109	0.347367	0.937034						
04803														-3.828934	-13.542858	-1.724450	0.997474	-0.065095	-0.028438	0.048003	0.912772	-0.405640	0.052363	0.403250	0.913591						
04804														-2.396150	-12.688724	-3.343716	0.997274	-0.057272	-0.046516	0.029544	0.887674	-0.459524	0.067609	0.456897	0.886946						
04805														-1.202002	-12.274322	-5.062162	0.996502	-0.055993	-0.062030	0.016738	0.861013	-0.508308	0.081870	0.505492	0.858938						
04806														-0.623386	-10.763517	-7.691053	0.995791	-0.061400	-0.068044	0.013941	0.835260	-0.549679	0.090585	0.546417	0.832600						
04807														-0.526133	-9.818120	-6.646160	0.995376	-0.068562	-0.067281	0.016718	0.813366	-0.581513	0.094594	0.577699	0.810750						
04808														-0.410247	-8.711149	-5.442289	0.995063	-0.085323	-0.050685	0.038381	0.801838	-0.596308	0.091520	0.591419	0.801154						
04809														-2.362338	-7.038098	-5.776610	0.994442	-0.102111	-0.025654	0.067053	0.802103	-0.593409	0.081171	0.588391	0.804492						
04810														-3.518609	-6.632220	-5.398645	0.994703	-0.101313	-0.017340	0.073209	0.816733	-0.572353	0.072149	0.568052	0.819824						
04811														-2.085791	-6.319353	-5.653911	0.995677	-0.090725	-0.019915	0.066030	0.842143	-0.535196	0.065327	0.531568	0.844493						
04812														-1.195027	-6.583230	-5.393647	0.996513	-0.080661	-0.021341	0.060306	0.873062	-0.483866	0.057661	0.480892	0.874882						
04813														-0.738554	-6.812906	-5.280358	0.996811	-0.078374	-0.014990	0.064852	0.905172	-0.420068	0.046491	0.417757	0.907369						
04814														-0.863003	-7.250254	-5.309574	0.996349	-0.085342	-0.002263	0.079284	0.934796	-0.346223	0.031663	0.344780	0.938149						
04815														-0.673678	-7.367397	-5.381988	0.994828	-0.100751	0.012911	0.100556	0.958905	-0.265312	0.014350	0.265238	0.964076						
04816														-1.098142	-7.658487	-5.576005	0.992275	-0.121152	0.026697	0.123994	0.975472	-0.181876	-0.004007	0.183781	0.982959						
04817														-2.202086	-8.347527	-5.413303	0.990251	-0.134399	0.036614	0.137501	0.985185	-0.102492	-0.022297	0.106527	0.994060						
04818														-2.074464	-7.520831	-5.320410	0.990344	-0.131368	0.044275	0.132843	0.990614	-0.032185	-0.039631	0.037755	0.998501						
04819														-0.917242	-6.397401	-4.766921	0.992079	-0.114387	0.051912	0.113601	0.993366	0.017867	-0.053611	-0.011828	0.998492						
04820														0.693559	-6.644556	-3.708017	0.993759	-0.093817	0.060343	0.091348	0.994914	0.042453	-0.064019	-0.036676	0.997275						
04821														3.493717	-3.470308	-6.514504	0.994043	-0.085156	0.068019	0.083538	0.996158	0.026290	-0.069997	-0.020451	0.997338						
04822														3.308390	-11.008591	-1.538884	0.993236	-0.090931	0.072205	0.092218	0.995631	-0.014683	-0.070554	0.021243	0.997282						
04823														-4.655602	-13.032733	-1.206175	0.985892	-0.150507	0.073248	0.153659	0.987335	-0.039467	-0.066380	0.050165	0.996533						
04824														-2.373691	-11.321761	-3.873661	0.982187	-0.171079	0.077717	0.176207	0.982223	-0.064723	-0.065263	0.077264	0.994872						
04825														-2.796477	-8.265401	-6.591001	0.978474	-0.187963	0.085192	0.195369	0.976682	-0.089016	-0.066473	0.103744	0.992380						
04826														-1.357436	-9.826448	-6.413340	0.978360	-0.185973	0.090694	0.195510	0.974400	-0.110998	-0.067729	0.126327	0.989674						
04827														-0.167791	-10.868076	-4.992689	0.978287	-0.183228	0.096859	0.194583	0.972905	-0.124869	-0.071355	0.141005	0.987434						
04828														1.435136	-10.464664	-4.302770	0.977435	-0.184179	0.103438	0.196935	0.971645	-0.130854	-0.076404	0.148272	0.985991						
04829														0.411819	-9.709636	-3.851696	0.974299	-0.196104	0.110839	0.210128	0.968515	-0.133508	-0.081168	0.153367	0.984830						
04830														-1.019418	-9.848239	-3.582970	0.973457	-0.197641	0.115412	0.212538	0.967713	-0.135493	-0.084907	0.156426	0.984033						
04831														0.921082	-10.227651	-3.238997	0.974557	-0.190476	0.118138	0.205813	0.969216	-0.135132	-0.088762	0.156008	0.983759						
04832														1.019369	-9.997914	-2.833261	0.974764	-0.188055	0.120297	0.203406	0.970226	-0.131485	-0.091989	0.152636	0.983992						
04833														-0.050665	-9.420476	-2.132352	0.975827	-0.182115	0.120817	0.197192	0.972041	-0.127481	-0.094223	0.148224	0.984455						
04834														0.615212	-9.444113	-1.905368	0.977956	-0.170847	0.120055	0.185513	0.974791	-0.123969	-0.095848	0.143507	0.984997						
04835														0.725902	-9.384484	-1.430817	0.979666	-0.161391	0.119192	0.175627	0.977047	-0.120559	-0.096999	0.139041	0.985525						
04836														0.892030	-9.089514	-1.390115	0.981035	-0.153638	0.118174	0.167509	0.978772	-0.118097	-0.097522	0.135653	0.985945						
04837														0.757478	-9.283813	-1.831013	0.981752	-0.149856	0.117071	0.163470	0.979595	-0.116927	-0.097160	0.133931	0.986216						
04838														0.166952	-9.450180	-2.070880	0.982259	-0.147689	0.115564	0.161034	0.980083	-0.116209	-0.096099	0.132757	0.986479						
04839														0.233743	-9.624903	-1.907516	0.982952	-0.144617	0.113542	0.157669	0.980667	-0.115898	-0.094586	0.131824	0.986750						
04840														0.507985	-9.968665	-1.907914	0.983225	-0.144309	0.111550	0.157067	0.980800	-0.115588	-0.092728	0.131170	0.987014						
04841														0.440650	-10.059070	-1.438773	0.983527	-0.144484	0.108622	0.156839	0.980857	-0.115418	-0.089867	0.130552	0.987360						
04842														0.567822	-9.510571	-0.751364	0.984340	-0.142175	0.104220	0.154098	0.981101	-0.117028	-0.085611	0.131255	0.987645						
04843														0.610688	-8.897683	0.148358	0.985337	-0.139185	0.098687	0.150853	0.980906	-0.122745	-0.079718	0.135832	0.987519						
04844														0.917603	-8.684297	0.724123	0.986279	-0.136950	0.092182	0.148564	0.979797	-0.133892	-0.071983	0.145750	0.986699						
04845														0.765247	-8.787417	0.490144	0.987297	-0.134417	0.084713	0.146024	0.977784	-0.150381	-0.062617	0.160841	0.984992						
04846														0.996859	-9.227688	0.007656	0.988533	-0.130866	0.075346	0.142158	0.974778	-0.172043	-0.050931	0.180781	0.982204						
04847														1.186800	-9.748534	-0.064501	0.989750	-0.127761	0.063815	0.138045	0.970374	-0.198289	-0.036591	0.205066	0.978064						
04848														0.808006	-9.673007	0.851964	0.990996	-0.124245	0.049901	0.132457	0.964147	-0.229946	-0.019543	0.234485	0.971923						
04849														-0.408400	-9.327646	1.895368	0.992606	-0.116230	0.034996	0.121365	0.955364	-0.269353	-0.002127	0.271609	0.962405						
04850														-1.648506	-9.940105	1.730771	0.994260	-0.105307	0.018917	0.105821	0.941777	-0.319152	0.015793	0.319322	0.947515						
04851														-2.737995	-12.383904	-0.148170	0.995666	-0.092915	0.003893	0.087533	0.922201	-0.376673	0.031408	0.375382	0.926338						
04852														-2.380806	-14.669717	-1.643966	0.996701	-0.079516	-0.016242	0.064637	0.898773	-0.433624	0.049078	0.431144	0.900947						
04853														-3.583676	-12.396258	-4.201513	0.996762	-0.073500	-0.032605	0.048385	0.872135	-0.486867	0.064221	0.483713	0.872867						
04854														-1.418875	-12.004816	-5.473009	0.996754	-0.066325	-0.045635	0.031771	0.844888	-0.533999	0.073974	0.530815	0.844253						
04855														-0.478682	-10.696000	-7.879798	0.996351	-0.066698	-0.053259	0.024096	0.818402	-0.574141	0.081881	0.570762	0.817023						
04856														-0.882834	-10.590561	-6.363222	0.996117	-0.068331	-0.055506	0.021171	0.797938	-0.602368	0.085451	0.598854	0.796286						
04857														-2.004531	-8.434684	-5.641564	0.996137	-0.075688	-0.044530	0.032877	0.791640	-0.610102	0.081429	0.606281	0.791071						
04858														-3.043315	-7.114781	-5.282567	0.996599	-0.072771	-0.038674	0.034986	0.798513	-0.600961	0.074614	0.597563	0.798343						
04859														-2.408797	-6.568312	-5.341084	0.997328	-0.059467	-0.042424	0.024355	0.818222	-0.574386	0.068869	0.571819	0.817484						
04860														-1.378603	-6.789984	-5.529246	0.997921	-0.046221	-0.044905	0.015180	0.845814	-0.533262	0.062629	0.531472	0.844757						
04861														-0.765627	-7.203557	-5.740933	0.998386	-0.039176	-0.041106	0.014710	0.877619	-0.479132	0.054846	0.477755	0.876780						
04862														-1.284289	-7.394986	-5.474958	0.998744	-0.039251	-0.031133	0.022853	0.909950	-0.414087	0.044583	0.412856	0.909705						
04863														-0.848279	-7.667950	-5.709741	0.998871	-0.043989	-0.017950	0.035244	0.939428	-0.340929	0.031860	0.339911	0.939918						
04864														-0.044367	-7.592916	-5.820526	0.998406	-0.056325	-0.003509	0.053411	0.963161	-0.263568	0.018226	0.262961	0.964634						
04865														-0.699663	-7.283567	-5.890819	0.997149	-0.074710	0.010619	0.075377	0.979527	-0.186667	0.003544	0.186935	0.982366						
04866														-1.929149	-7.440951	-5.681099	0.995833	-0.088471	0.022113	0.090430	0.989334	-0.114194	-0.011775	0.115718	0.993212						
04867														-1.276907	-6.969126	-5.472628	0.995520	-0.089327	0.030994	0.090818	0.994581	-0.050594	-0.026307	0.053182	0.998238						
04868														-0.021608	-6.899996	-5.151814	0.995779	-0.083333	0.038473	0.083514	0.996502	-0.003115	-0.038079	0.006315	0.999255						
04869														0.520604	-6.716999	-5.201088	0.995611	-0.081729	0.045593	0.080617	0.996413	0.025727	-0.047532	-0.021939	0.998629						
04870														0.664973	-6.755450	-5.463921	0.994629	-0.088942	0.052938	0.087174	0.995584	0.034835	-0.055802	-0.030033	0.997990						
04871														0.045998	-6.872584	-4.895470	0.993317	-0.098620	0.059958	0.097086	0.994882	0.027997	-0.062412	-0.021989	0.997808						
04872														1.655170	-7.302266	-4.253182	0.992611	-0.102481	0.064977	0.102214	0.994735	0.007427	-0.065396	-0.000731	0.997859						
04873														1.874432	-12.721624	-0.257035	0.989668	-0.126203	0.068038	0.126731	0.991931	-0.003494	-0.067048	0.012081	0.997677						
04874														-5.410473	-15.432407	-1.354320	0.982286	-0.175056	0.066858	0.176455	0.984185	-0.015578	-0.063074	0.027099	0.997641						
04875														-4.847197	-9.587346	-6.142892	0.976713	-0.202211	0.071707	0.204671	0.978409	-0.028726	-0.064350	0.042734	0.997012						
04876														-5.313501	-8.585019	-5.657876	0.975803	-0.203289	0.080516	0.207052	0.977451	-0.041449	-0.070275	0.057117	0.995891						
04877														-0.974655	-9.928950	-4.501262	0.977797	-0.189106	0.090282	0.193956	0.979821	-0.048283	-0.079330	0.064721	0.994745						
04878														0.749814	-10.887120	-2.042155	0.978686	-0.179409	0.099926	0.184985	0.981490	-0.049574	-0.089182	0.067002	0.993759						
04879														1.873559	-10.350695	-1.128267	0.978877	-0.173482	0.108188	0.179575	0.982508	-0.049299	-0.097743	0.067685	0.992907						
04880														1.599658	-9.358608	-1.105780	0.978240	-0.172839	0.114778	0.179457	0.982494	-0.050001	-0.104127	0.069511	0.992132						
04881														0.820409	-9.906738	-0.886017	0.977945	-0.171015	0.119908	0.178249	0.982591	-0.052370	-0.108864	0.072588	0.991403						
04882														0.865959	-10.099701	-1.253943	0.977882	-0.168699	0.123643	0.176410	0.982820	-0.054252	-0.112367	0.074864	0.990843						
04883														0.215448	-9.659088	-1.262295	0.978163	-0.165054	0.126313	0.173148	0.983305	-0.055962	-0.114967	0.076611	0.990411						
04884														0.103777	-9.930572	-1.440237	0.979703	-0.154536	0.127671	0.163024	0.984863	-0.058889	-0.116638	0.078507	0.990067						
04885														0.668307	-9.544312	-1.350189	0.981054	-0.144924	0.128566	0.153706	0.986220	-0.061186	-0.117927	0.079788	0.989812						
04886														0.468265	-9.408107	-0.940034	0.982329	-0.135432	0.129180	0.144549	0.987426	-0.063989	-0.118890	0.081531	0.989554						
04887														0.910754	-9.450924	-1.078985	0.982777	-0.131010	0.130328	0.140581	0.987790	-0.067137	-0.119941	0.084303	0.989195						
04888														0.378713	-9.438728	-1.063091	0.982707	-0.129995	0.131861	0.140219	0.987541	-0.071426	-0.120933	0.088680	0.988692						
04889														0.878644	-9.741925	-1.274030	0.982514	-0.130390	0.132912	0.141341	0.986996	-0.076560	-0.121201	0.094007	0.988167						
04890														0.851355	-9.891716	-1.343501	0.982110	-0.132510	0.133795	0.144174	0.986184	-0.081582	-0.121136	0.099412	0.987645						
04891														0.684995	-9.635116	-1.139119	0.981841	-0.134738	0.133544	0.147102	0.985247	-0.087463	-0.119789	0.105519	0.987176						
04892														0.795497	-9.497112	-1.279013	0.982016	-0.134750	0.132235	0.147869	0.984438	-0.094957	-0.117382	0.112803	0.986660						
04893														0.669922	-9.418084	-1.147718	0.982390	-0.134161	0.130042	0.148056	0.983516	-0.103807	-0.113972	0.121233	0.986059						
04894														1.113995	-9.410757	-0.773575	0.983017	-0.132825	0.126633	0.147509	0.982393	-0.114648	-0.109175	0.131380	0.985302						
04895														0.530691	-9.582310	-0.730291	0.983381	-0.133401	0.123153	0.148969	0.980611	-0.127317	-0.103781	0.143547	0.984187						
04896														0.418957	-9.439331	-0.985108	0.983982	-0.132874	0.118845	0.149295	0.978537	-0.142045	-0.097420	0.157512	0.982700						
04897														0.697915	-9.421666	-1.138936	0.984892	-0.130974	0.113286	0.148118	0.976062	-0.159262	-0.089715	0.173635	0.980715						
04898														0.372988	-9.540811	-1.671806	0.986647	-0.123765	0.105873	0.141340	0.973647	-0.178981	-0.080931	0.191555	0.978139						
04899														0.095361	-10.183015	-2.230116	0.988621	-0.114987	0.096991	0.132517	0.970843	-0.199758	-0.071194	0.210338	0.975033						
04900														-0.233387	-9.810367	-2.118633	0.990797	-0.104334	0.086233	0.121140	0.967717	-0.221019	-0.060390	0.229431	0.971450						
04901														0.394689	-9.140031	-1.850403	0.992835	-0.094053	0.073705	0.109399	0.963569	-0.244061	-0.048065	0.250376	0.966955						
04902														0.737032	-8.798586	-1.719584	0.994627	-0.084350	0.060017	0.097530	0.957899	-0.270033	-0.034713	0.274435	0.960979						
04903														0.636597	-8.845492	-1.537442	0.995998	-0.076858	0.045613	0.087026	0.950236	-0.299129	-0.020353	0.301902	0.953122						
04904														0.779723	-9.338627	0.233537	0.996962	-0.071849	0.030073	0.077772	0.939417	-0.333837	-0.004265	0.335162	0.942151						
04905														-0.478727	-10.769974	3.654925	0.997589	-0.068160	0.013016	0.068013	0.923226	-0.378190	0.013761	0.378164	0.925636						
04906														-3.851751	-12.693015	3.330858	0.997764	-0.066819	-0.001278	0.059622	0.898612	-0.434674	0.030193	0.433626	0.900587						
04907														-2.943604	-14.224280	-1.556141	0.998386	-0.054242	-0.016842	0.038896	0.869057	-0.493180	0.041388	0.491729	0.869764						
04908														0.954713	-13.384495	-6.046512	0.998391	-0.045108	-0.034352	0.018931	0.836291	-0.547959	0.053445	0.546427	0.835800						
04909														0.654063	-10.773302	-9.421264	0.997840	-0.051012	-0.041397	0.016307	0.802732	-0.596116	0.063639	0.594154	0.801830						
04910														-0.560805	-11.902859	-7.684009	0.997441	-0.047553	-0.053393	0.003230	0.775971	-0.630761	0.071426	0.628974	0.774138						
04911														-2.791283	-10.377575	-6.763833	0.997215	-0.047335	-0.057625	-0.001270	0.761832	-0.647774	0.074563	0.646043	0.759650						
04912														-3.846366	-8.225342	-6.332954	0.997238	-0.031727	-0.067151	-0.019583	0.759837	-0.649819	0.071640	0.649339	0.757117						
04913														-1.846988	-7.483152	-6.339903	0.997112	-0.010295	-0.075241	-0.040230	0.768729	-0.638309	0.064411	0.639492	0.766095						
04914														-0.067117	-7.091842	-5.954970	0.997266	0.003998	-0.073787	-0.048751	0.786002	-0.616298	0.055533	0.618211	0.784048						
04915														-0.883993	-7.056587	-5.514864	0.998202	0.002473	-0.059895	-0.037140	0.809791	-0.585542	0.047054	0.586713	0.808426						
04916														-2.554906	-6.968152	-5.262366	0.998987	-0.004002	-0.044820	-0.021102	0.838064	-0.545164	0.039744	0.545557	0.837130						
04917														-2.782377	-7.413951	-5.203819	0.999369	-0.005486	-0.035089	-0.012634	0.868464	-0.495591	0.033193	0.495721	0.867847						
04918														-2.434094	-7.751200	-5.427051	0.999609	-0.002948	-0.027804	-0.009498	0.899491	-0.436835	0.026297	0.436929	0.899112						
04919														-2.032956	-7.826912	-5.431745	0.999731	0.004618	-0.022736	-0.012687	0.929304	-0.369098	0.019424	0.369287	0.929112						
04920														-1.127055	-8.120331	-5.515559	0.999794	0.011025	-0.017053	-0.015546	0.955839	-0.293479	0.013064	0.293684	0.955813						
04921														-0.874237	-8.371709	-5.667778	0.999894	0.010925	-0.009621	-0.012706	0.977511	-0.210501	0.007105	0.210601	0.977546						
04922														-0.832960	-8.480967	-5.659902	0.999979	0.006159	-0.001970	-0.006351	0.992738	-0.120130	0.001216	0.120140	0.992756						
04923														-1.496122	-8.543351	-5.445366	0.999989	-0.000798	0.004651	0.000906	0.999730	-0.023213	-0.004631	0.023217	0.999720						
04924														-2.312525	-7.819232	-5.715792	0.999933	-0.004050	0.010822	0.003191	0.996929	0.078241	-0.011105	-0.078202	0.996876						
04925														-1.963293	-8.432492	-4.992834	0.999824	0.001261	0.018731	-0.004591	0.983873	0.178810	-0.018204	-0.178864	0.983705						
04926														-0.677802	-9.714850	-4.709908	0.999583	0.007707	0.027835	-0.015112	0.960854	0.276642	-0.024614	-0.276947	0.960570						
04927														-0.224681	-10.204948	-2.519674	0.999463	0.006966	0.032017	-0.018171	0.930943	0.364713	-0.027265	-0.365099	0.930569						
04928														0.682985	-7.967469	-0.215573	0.999599	-0.009754	0.026583	-0.002626	0.902832	0.429986	-0.028194	-0.429884	0.902444						
04929														-2.672643	-2.910446	2.063953	0.998971	-0.043092	0.014124	0.031720	0.886591	0.461465	-0.032407	-0.460543	0.887046						
04930														-2.952630	-4.063283	2.598614	0.998343	-0.055677	0.014533	0.043080	0.890627	0.452689	-0.038148	-0.451312	0.891550						
04931														-1.194307	-6.402763	0.738262	0.998311	-0.055192	0.018152	0.042609	0.907876	0.417067	-0.039499	-0.415589	0.908695						
04932														-0.957438	-7.095393	0.007626	0.998123	-0.058192	0.019077	0.047362	0.931009	0.361909	-0.038821	-0.360326	0.932018						
04933														-1.250383	-8.423055	-1.257422	0.997606	-0.066637	0.018511	0.058419	0.955188	0.290178	-0.037018	-0.288402	0.956794						
04934														-2.217492	-10.087978	-2.422815	0.996977	-0.075517	0.018270	0.070044	0.975348	0.209263	-0.033622	-0.207351	0.977689						
04935														-2.570809	-10.243328	-3.816607	0.996995	-0.074828	0.020055	0.071658	0.989144	0.128291	-0.029437	-0.126468	0.991534						
04936														-0.988122	-8.028541	-2.059961	0.998542	-0.050913	0.017946	0.049854	0.997231	0.055185	-0.020706	-0.054210	0.998315						
04937														8.095527	-17.334304	9.486412	0.999314	-0.029994	0.021736	0.029635	0.999422	0.016649	-0.022223	-0.015993	0.999625						
04938														0.594924	-19.422229	7.404497	0.991409	-0.122170	0.046721	0.121777	0.992494	0.011191	-0.047738	-0.005406	0.998845						
04939														-4.978556	-9.102632	-5.538858	0.982982	-0.176543	0.050791	0.177310	0.984094	-0.010970	-0.048047	0.019790	0.998649						
04940														-2.157385	-5.485594	-7.686101	0.977772	-0.201416	0.058254	0.203860	0.978201	-0.039546	-0.049019	0.050543	0.997518						
04941														-1.628786	-10.993807	-5.756673	0.975018	-0.210735	0.070216	0.215173	0.974537	-0.063074	-0.055136	0.076607	0.995536						
04942														-0.831835	-11.291538	-3.292858	0.973018	-0.216456	0.079896	0.222508	0.971910	-0.076694	-0.061051	0.092402	0.993848						
04943														-0.532293	-10.843715	-3.102423	0.972892	-0.213958	0.087764	0.221444	0.971296	-0.086867	-0.066659	0.103947	0.992347						
04944														2.101767	-9.749060	-4.048115	0.972955	-0.210511	0.095098	0.219397	0.970969	-0.095311	-0.072273	0.113597	0.990895						
04945														0.479026	-10.181588	-3.774145	0.971406	-0.214772	0.101214	0.224764	0.969211	-0.100556	-0.076501	0.120430	0.989770						
04946														0.137081	-10.370821	-3.277084	0.970662	-0.216033	0.105570	0.226536	0.968820	-0.100345	-0.080600	0.121317	0.989336						
04947														-0.757273	-9.791288	-2.586475	0.969766	-0.217929	0.109824	0.228631	0.968709	-0.096596	-0.085336	0.118785	0.989246						
04948														-0.754286	-9.469327	-1.424422	0.970868	-0.211278	0.113035	0.222120	0.970494	-0.093826	-0.089877	0.116200	0.989151						
04949														1.040951	-9.730809	-1.426005	0.972384	-0.202673	0.115729	0.213560	0.972688	-0.090937	-0.094138	0.113141	0.989109						
04950														0.520222	-9.525719	-0.968420	0.973411	-0.196257	0.118126	0.207108	0.974368	-0.087824	-0.097862	0.109954	0.989107						
04951														0.361035	-9.365430	-1.126911	0.975765	-0.183756	0.118815	0.194537	0.977072	-0.086520	-0.100193	0.107538	0.989140						
04952														1.558923	-9.247212	-1.342347	0.977597	-0.173764	0.118786	0.184540	0.978999	-0.086633	-0.101237	0.106612	0.989133						
04953														1.311792	-9.437828	-1.439439	0.977445	-0.174071	0.119582	0.185016	0.978838	-0.087433	-0.101832	0.107585	0.988967						
04954														0.149166	-9.677763	-1.863292	0.976738	-0.177810	0.119860	0.188889	0.978012	-0.088391	-0.101508	0.108975	0.988848						
04955														0.077891	-9.744454	-1.982534	0.977359	-0.174858	0.119140	0.185987	0.978449	-0.089696	-0.100889	0.109824	0.988818						
04956														0.475574	-9.960615	-2.246452	0.977784	-0.173226	0.118033	0.184314	0.978689	-0.090529	-0.099836	0.110273	0.988875						
04957														-0.086745	-10.157910	-2.068161	0.978144	-0.172267	0.116437	0.183147	0.978936	-0.090228	-0.098442	0.109581	0.989091						
04958														0.293837	-9.897478	-0.884064	0.979515	-0.166412	0.113390	0.176927	0.980103	-0.089974	-0.096161	0.108193	0.989468						
04959														1.167500	-9.027356	0.327968	0.981027	-0.160310	0.109028	0.170575	0.981003	-0.092397	-0.092145	0.109241	0.989735						
04960														1.251867	-8.703264	1.069332	0.982456	-0.155020	0.103676	0.165386	0.981124	-0.100218	-0.086183	0.115606	0.989549						
04961														0.672662	-8.878303	0.986133	0.984001	-0.149427	0.097027	0.160135	0.980490	-0.114003	-0.078099	0.127716	0.988731						
04962														0.115952	-9.492542	-0.350102	0.985821	-0.142436	0.088706	0.153392	0.979272	-0.132280	-0.068026	0.144012	0.987235						
04963														0.397767	-9.292751	-0.841490	0.988292	-0.131222	0.077850	0.141968	0.977803	-0.154098	-0.055901	0.163346	0.984984						
04964														0.799887	-8.937827	-0.492769	0.990470	-0.121083	0.065642	0.131084	0.974994	-0.179451	-0.042272	0.186345	0.981574						
04965														0.990100	-9.276331	-0.067785	0.992387	-0.111915	0.051410	0.120276	0.970460	-0.209145	-0.026485	0.213736	0.976532						
04966														0.722205	-9.934551	-0.639952	0.993478	-0.107849	0.037007	0.113626	0.963462	-0.242551	-0.009496	0.245174	0.969433						
04967														-0.380383	-10.629168	-0.450774	0.994680	-0.101010	0.020226	0.102625	0.954557	-0.279802	0.008956	0.280389	0.959845						
04968														-0.776339	-11.313078	-0.036004	0.995370	-0.096093	0.002217	0.091645	0.941846	-0.323306	0.028980	0.322012	0.946292						
04969														-3.704398	-12.365718	0.175244	0.995751	-0.090708	-0.015869	0.078281	0.924566	-0.372895	0.048497	0.370068	0.927738						
04970														-2.135435	-14.133810	0.637086	0.996315	-0.075602	-0.040511	0.051489	0.904921	-0.422454	0.068598	0.418811	0.905479						
04971														-0.653881	-13.069298	-1.117178	0.995351	-0.076383	-0.058668	0.039737	0.880556	-0.472274	0.087735	0.467747	0.879497						
04972														0.118263	-12.122248	-4.157338	0.993598	-0.095195	-0.060836	0.049728	0.852049	-0.521094	0.101441	0.514733	0.851328						
04973														-1.763080	-10.718760	-8.299368	0.991778	-0.111705	-0.062435	0.057269	0.823736	-0.564073	0.114440	0.555860	0.823361						
04974														-1.472405	-10.201482	-7.698611	0.991186	-0.108222	-0.076404	0.041579	0.801744	-0.596220	0.125781	0.587788	0.799177						
04975														-0.453801	-9.860801	-5.591874	0.990779	-0.111545	-0.076909	0.041231	0.788943	-0.613081	0.129063	0.604257	0.786267						
04976														-3.646964	-7.558025	-6.041290	0.991329	-0.112861	-0.067306	0.047883	0.787229	-0.614799	0.122372	0.606245	0.785806						
04977														-3.324306	-6.925350	-5.885716	0.993077	-0.095094	-0.068950	0.034890	0.799322	-0.599889	0.112160	0.593330	0.797107						
04978														-1.360085	-5.973821	-6.164078	0.994864	-0.073000	-0.070124	0.020052	0.821159	-0.570348	0.099218	0.566012	0.818405						
04979														-0.499866	-5.608407	-6.026489	0.996460	-0.056478	-0.062276	0.015174	0.849401	-0.527531	0.082691	0.524718	0.847250						
04980														-0.893304	-5.717969	-6.080327	0.997704	-0.051755	-0.043693	0.024965	0.880656	-0.473099	0.062964	0.470922	0.879925						
04981														-2.111376	-5.427957	-6.086862	0.998190	-0.056143	-0.021575	0.042467	0.911898	-0.408213	0.042593	0.406558	0.912632						
04982														-1.678092	-5.274940	-6.513280	0.997828	-0.065852	-0.001927	0.061370	0.939759	-0.336285	0.023956	0.335436	0.941758						
04983														-1.316048	-5.666392	-6.938014	0.996728	-0.079786	0.012949	0.080388	0.961740	-0.261905	0.008443	0.262089	0.965007						
04984														-1.634216	-5.997120	-6.745461	0.995659	-0.090428	0.022054	0.092971	0.977598	-0.188837	-0.004484	0.190067	0.981761						
04985														-1.164205	-6.675671	-6.353435	0.995341	-0.093290	0.024345	0.095569	0.988004	-0.121308	-0.012736	0.123069	0.992316						
04986														-0.782992	-7.395129	-5.765504	0.995502	-0.092322	0.021292	0.093521	0.993514	-0.064685	-0.015182	0.066386	0.997679						
04987														-0.398052	-7.345915	-5.364623	0.995118	-0.096975	0.018350	0.097372	0.995003	-0.022104	-0.016114	0.023782	0.999587						
04988														-0.732979	-7.245758	-4.874333	0.993894	-0.108598	0.019537	0.108535	0.994084	0.004253	-0.019884	-0.002107	0.999800						
04989														-1.624948	-7.604706	-4.425060	0.992759	-0.117523	0.024873	0.117159	0.992990	0.015614	-0.026533	-0.012586	0.999569						
04990														-1.751518	-7.640056	-4.138050	0.993181	-0.112024	0.032286	0.111589	0.993642	0.014979	-0.033759	-0.011275	0.999366						
04991														0.251253	-8.679389	-1.444608	0.995765	-0.082856	0.039844	0.082831	0.996561	0.002292	-0.039897	0.001018	0.999203						
04992														2.509212	-15.869308	4.327711	0.996711	-0.068836	0.042769	0.069637	0.997419	-0.017517	-0.041453	0.020437	0.998931						
04993														-3.785405	-12.911584	2.295950	0.993166	-0.110589	0.037293	0.112056	0.992903	-0.039843	-0.032622	0.043750	0.998510						
04994														-1.130353	-8.200362	-4.033754	0.986912	-0.154890	0.044871	0.157574	0.985419	-0.064190	-0.034274	0.070420	0.996928						
04995														-3.810871	-8.508628	-6.227617	0.982068	-0.179907	0.056353	0.184378	0.978908	-0.087997	-0.039333	0.096809	0.994525						
04996														-2.267997	-9.374967	-6.542710	0.982428	-0.175640	0.063129	0.181540	0.977790	-0.104733	-0.043331	0.114353	0.992495						
04997														-0.052297	-10.355622	-5.283142	0.984420	-0.162898	0.066192	0.169659	0.978861	-0.114226	-0.046186	0.123676	0.991247						
04998														1.418959	-10.554630	-4.099327	0.984440	-0.160608	0.071290	0.168187	0.978722	-0.117543	-0.050895	0.127704	0.990506						
04999														0.193514	-10.086236	-3.161677	0.981268	-0.175652	0.079115	0.184176	0.975803	-0.117850	-0.056500	0.130213	0.989875						
05000														-2.257226	-9.241517	-2.536038	0.978578	-0.186850	0.086444	0.196241	0.973521	-0.117241	-0.062249	0.131693	0.989334						
