// General information: 
//  MT Manager version: 2022.2.0 
//  XDA version: 2022.2.0 build 7381 rev 124627 built on 2023-07-19
// Device information: 
//  DeviceId: 00B4D4CF
//  ProductCode: MTW2-3A7G6
//  Firmware Version: 4.6.0
//  Hardware Version: 2.0.0
// Device settings: 
//  Filter Profile: human(46.1)
//  Option Flags: Orientation Smoother Disabled, Position/Velocity Smoother Disabled, Continuous Zero Rotation Update Disabled, AHS Disabled, ICC Disabled
// Coordinate system: ENU
PacketCounter	SampleTimeFine	Year	Month	Day	Second	UTC_Nano	UTC_Year	UTC_Month	UTC_Day	UTC_Hour	UTC_Minute	UTC_Second	UTC_Valid	Acc_X	Acc_Y	Acc_Z	Mat[1][1]	Mat[2][1]	Mat[3][1]	Mat[1][2]	Mat[2][2]	Mat[3][2]	Mat[1][3]	Mat[2][3]	Mat[3][3]	Latitude	Longitude	Altitude	Vel_E	Vel_N	Vel_U
04221														2.519033	-9.772593	0.571452	0.996669	0.081365	-0.005563	-0.081336	0.996673	0.005291	0.005975	-0.004821	0.999971						
04222														2.207522	-9.501761	0.632250	0.996925	0.078181	-0.005227	-0.078159	0.996931	0.004341	0.005550	-0.003919	0.999977						
04223														1.752425	-9.447846	0.638655	0.996993	0.077359	-0.004476	-0.077348	0.997001	0.002416	0.004649	-0.002062	0.999987						
04224														2.056734	-9.560418	0.687709	0.996891	0.078726	-0.003300	-0.078727	0.996896	-0.000245	0.003271	0.000504	0.999995						
04225														2.015437	-9.560765	0.591413	0.996928	0.078284	-0.002653	-0.078290	0.996928	-0.002175	0.002475	0.002376	0.999994						
04226														1.925613	-9.528418	0.535723	0.996867	0.079052	-0.002571	-0.079063	0.996861	-0.004248	0.002227	0.004438	0.999988						
04227														1.987114	-9.459942	0.538360	0.996817	0.079671	-0.002794	-0.079686	0.996802	-0.005987	0.002308	0.006190	0.999978						
04228														2.042484	-9.605874	0.533789	0.996777	0.080159	-0.003319	-0.080181	0.996756	-0.006988	0.002748	0.007231	0.999970						
04229														2.061167	-9.955462	0.633051	0.996682	0.081215	-0.005365	-0.081252	0.996668	-0.007081	0.004772	0.007493	0.999961						
04230														1.752199	-10.233926	1.189389	0.996481	0.083351	-0.008821	-0.083395	0.996505	-0.004708	0.008397	0.005427	0.999950						
04231														1.210732	-9.593738	1.431704	0.995888	0.089831	-0.011705	-0.089856	0.995953	-0.001659	0.011508	0.002704	0.999930						
04232														1.913529	-9.281184	1.152222	0.994945	0.099392	-0.014355	-0.099386	0.995048	0.001113	0.014395	0.000320	0.999896						
04233														2.355939	-9.231987	0.947390	0.994465	0.103570	-0.017675	-0.103469	0.994611	0.006542	0.018257	-0.004677	0.999822						
04234														1.886833	-9.180635	0.692399	0.993801	0.109322	-0.020215	-0.109112	0.993966	0.011234	0.021321	-0.008959	0.999733						
04235														2.505479	-9.383247	0.741810	0.993360	0.112990	-0.021641	-0.112659	0.993505	0.015977	0.023306	-0.013433	0.999638						
04236														1.582754	-9.533563	0.260969	0.992562	0.119596	-0.022747	-0.119158	0.992679	0.019721	0.024939	-0.016864	0.999547						
04237														2.407278	-9.768701	0.232396	0.991310	0.129532	-0.022923	-0.129036	0.991397	0.021951	0.025569	-0.018802	0.999496						
04238														2.137111	-9.634554	0.096711	0.990614	0.134671	-0.023420	-0.134083	0.990652	0.025103	0.026582	-0.021727	0.999411						
04239														1.351510	-9.432430	0.292725	0.989120	0.145109	-0.024168	-0.144490	0.989173	0.025665	0.027631	-0.021894	0.999378						
04240														1.545179	-9.487650	0.424461	0.986047	0.164679	-0.024352	-0.164149	0.986182	0.022368	0.027699	-0.018059	0.999453						
04241														3.020437	-9.601416	0.655915	0.983617	0.178660	-0.024027	-0.178222	0.983801	0.019299	0.027086	-0.014701	0.999525						
04242														2.321260	-9.558269	0.522601	0.983404	0.179768	-0.024474	-0.179327	0.983602	0.019207	0.027526	-0.014499	0.999516						
04243														1.157007	-9.484240	0.514301	0.982622	0.183934	-0.024951	-0.183520	0.982851	0.017999	0.027833	-0.013107	0.999527						
04244														1.964470	-9.630654	0.377105	0.980372	0.195647	-0.024357	-0.195340	0.980629	0.014440	0.026711	-0.009399	0.999599						
04245														2.997543	-9.780046	0.705306	0.980888	0.192984	-0.024830	-0.192655	0.981151	0.015065	0.027269	-0.009993	0.999578						
04246														1.196771	-9.408281	0.617547	0.981804	0.188085	-0.026157	-0.187721	0.982096	0.015742	0.028650	-0.010545	0.999534						
04247														1.427150	-9.472817	0.706425	0.981002	0.192220	-0.026199	-0.191937	0.981322	0.012941	0.028197	-0.007666	0.999573						
04248														2.308208	-9.645174	0.744009	0.980844	0.193040	-0.026102	-0.192817	0.981175	0.010826	0.027701	-0.005585	0.999601						
04249														1.813579	-9.579642	0.646339	0.981297	0.190668	-0.026502	-0.190491	0.981647	0.009063	0.027743	-0.003845	0.999608						
04250														1.575380	-9.690760	0.539793	0.980988	0.192208	-0.026823	-0.192098	0.981353	0.006624	0.027596	-0.001346	0.999618						
04251														1.875841	-9.689684	0.581189	0.980243	0.195931	-0.027095	-0.195899	0.980617	0.003839	0.027322	0.001545	0.999625						
04252														2.040454	-9.694237	0.602809	0.979894	0.197612	-0.027532	-0.197643	0.980273	0.001613	0.027308	0.003861	0.999620						
04253														1.730786	-9.552834	0.617017	0.979360	0.200167	-0.028043	-0.200270	0.979740	-0.000894	0.027296	0.006491	0.999606						
04254														2.013161	-9.552843	0.650708	0.978732	0.203205	-0.028143	-0.203389	0.979090	-0.003814	0.026780	0.009457	0.999597						
04255														2.217166	-9.488579	0.703771	0.978902	0.202409	-0.027951	-0.202648	0.979233	-0.006003	0.026155	0.011541	0.999591						
04256														1.707816	-9.425546	0.654662	0.978854	0.202705	-0.027487	-0.203014	0.979135	-0.008917	0.025106	0.014308	0.999582						
04257														2.134650	-9.662193	0.583579	0.978685	0.203684	-0.026251	-0.204053	0.978883	-0.012242	0.023203	0.017338	0.999580						
04258														2.205922	-9.689804	0.653897	0.979480	0.199970	-0.025105	-0.200358	0.979623	-0.013980	0.021798	0.018724	0.999587						
04259														1.241332	-9.653282	0.420660	0.979333	0.200816	-0.024073	-0.201233	0.979408	-0.016316	0.020301	0.020823	0.999577						
04260														2.093307	-9.590097	0.457401	0.978318	0.205830	-0.022976	-0.206274	0.978311	-0.018954	0.018576	0.023283	0.999556						
04261														2.132490	-9.486825	0.594023	0.978686	0.204109	-0.022637	-0.204555	0.978661	-0.019495	0.018175	0.023710	0.999554						
04262														1.348828	-9.571943	0.533157	0.978698	0.204093	-0.022294	-0.204542	0.978650	-0.020149	0.017706	0.024280	0.999548						
04263														1.891077	-9.614478	0.431844	0.978391	0.205575	-0.022142	-0.206035	0.978319	-0.021012	0.017342	0.025120	0.999534						
04264														1.876156	-9.621937	0.379166	0.978677	0.204141	-0.022760	-0.204606	0.978631	-0.020416	0.018106	0.024638	0.999532						
04265														1.675617	-9.689473	0.336667	0.978516	0.204796	-0.023770	-0.205277	0.978502	-0.019896	0.019184	0.024348	0.999519						
04266														1.952816	-9.689799	0.441051	0.978422	0.205097	-0.025019	-0.205599	0.978442	-0.019496	0.020482	0.024219	0.999497						
04267														1.911334	-9.636557	0.382495	0.978505	0.204549	-0.026230	-0.205077	0.978555	-0.019322	0.021715	0.024286	0.999469						
04268														1.957085	-9.736647	0.208238	0.978594	0.203992	-0.027219	-0.204558	0.978652	-0.019914	0.022575	0.025056	0.999431						
04269														2.231297	-9.696834	0.279578	0.979156	0.201126	-0.028318	-0.201707	0.979254	-0.019373	0.023834	0.024681	0.999411						
04270														1.784139	-9.744747	0.334107	0.979676	0.198455	-0.029153	-0.199038	0.979815	-0.018627	0.024868	0.024051	0.999401						
04271														1.616488	-9.590893	0.407748	0.979601	0.198703	-0.029992	-0.199299	0.979766	-0.018382	0.025732	0.023984	0.999381						
04272														2.323615	-9.602375	0.407891	0.979757	0.197853	-0.030486	-0.198450	0.979947	-0.017922	0.026329	0.023609	0.999374						
04273														1.719039	-9.561131	0.380960	0.980454	0.194267	-0.031140	-0.194820	0.980712	-0.015802	0.027470	0.021560	0.999390						
04274														1.580483	-9.565457	0.562590	0.980451	0.194165	-0.031875	-0.194695	0.980757	-0.014451	0.028455	0.020374	0.999387						
04275														2.339232	-9.538039	0.669331	0.980902	0.191733	-0.032719	-0.192247	0.981256	-0.013330	0.029550	0.019366	0.999376						
04276														1.957631	-9.543485	0.592988	0.982548	0.182880	-0.033971	-0.183317	0.983001	-0.010200	0.031528	0.016249	0.999371						
04277														0.926074	-9.454169	0.445961	0.982751	0.181638	-0.034747	-0.182040	0.983252	-0.008738	0.032578	0.014912	0.999358						
04278														1.611824	-9.384825	0.436154	0.981225	0.189708	-0.034776	-0.190160	0.981700	-0.010175	0.032209	0.016597	0.999343						
04279														2.704957	-9.768839	0.728490	0.980304	0.194426	-0.034690	-0.194907	0.980760	-0.011029	0.031878	0.017573	0.999337						
04280														1.905239	-9.863072	0.728101	0.981318	0.189215	-0.034831	-0.189650	0.981804	-0.009632	0.032375	0.016058	0.999347						
04281														0.819783	-9.700935	0.445791	0.980664	0.192639	-0.034480	-0.193091	0.981127	-0.010261	0.031853	0.016720	0.999353						
04282														2.375846	-9.766985	0.523403	0.978488	0.203540	-0.033647	-0.204027	0.978895	-0.011721	0.030551	0.018334	0.999365						
04283														2.507654	-9.493303	0.720358	0.978328	0.204262	-0.033929	-0.204720	0.978763	-0.010577	0.031048	0.017294	0.999368						
04284														1.270359	-9.678771	0.552476	0.978591	0.203009	-0.033860	-0.203459	0.979028	-0.010394	0.031040	0.017061	0.999373						
04285														1.585549	-9.655129	0.344134	0.978532	0.203360	-0.033471	-0.203832	0.978940	-0.011328	0.030462	0.017907	0.999376						
04286														1.736703	-9.426197	0.232436	0.977927	0.206173	-0.033926	-0.206688	0.978328	-0.012397	0.030635	0.019135	0.999347						
04287														2.200965	-9.420367	0.323788	0.977220	0.209516	-0.033833	-0.210058	0.977598	-0.013341	0.030280	0.020144	0.999338						
04288														2.022708	-9.565575	0.584849	0.977827	0.206723	-0.033472	-0.207251	0.978200	-0.013116	0.030031	0.019763	0.999354						
04289														1.247066	-9.610959	0.490480	0.977790	0.207005	-0.032813	-0.207542	0.978128	-0.013871	0.029224	0.020373	0.999365						
04290														1.966996	-9.528584	0.379382	0.976723	0.212170	-0.031565	-0.212747	0.976974	-0.016142	0.027414	0.022482	0.999371						
04291														2.257268	-9.659419	0.440544	0.977064	0.210765	-0.030407	-0.211329	0.977273	-0.016658	0.026205	0.022702	0.999399						
04292														1.435336	-9.544793	0.385282	0.977074	0.210862	-0.029386	-0.211423	0.977238	-0.017491	0.025029	0.023303	0.999415						
04293														1.773784	-9.684011	0.336533	0.976320	0.214509	-0.028015	-0.215082	0.976405	-0.019312	0.023211	0.024880	0.999421						
04294														2.326537	-9.772839	0.376978	0.976287	0.214788	-0.026996	-0.215352	0.976331	-0.020023	0.022057	0.025362	0.999435						
04295														1.844736	-9.510710	0.424300	0.977502	0.209208	-0.026856	-0.209745	0.977572	-0.018975	0.022284	0.024181	0.999459						
04296														1.361978	-9.325635	0.438382	0.977612	0.208707	-0.026745	-0.209241	0.977680	-0.018986	0.022186	0.024157	0.999462						
04297														1.685620	-9.651332	0.477499	0.976988	0.211696	-0.026077	-0.212221	0.977030	-0.019327	0.021387	0.024417	0.999473						
04298														2.048577	-9.673840	0.508290	0.976961	0.211838	-0.025911	-0.212353	0.977007	-0.019047	0.021280	0.024111	0.999483						
04299														1.798889	-9.653693	0.462367	0.977635	0.208686	-0.026094	-0.209169	0.977725	-0.017401	0.021881	0.022470	0.999508						
04300														1.324058	-9.627995	0.394905	0.977396	0.209780	-0.026248	-0.210249	0.977507	-0.016612	0.022172	0.021755	0.999517						
04301														1.994156	-9.562520	0.529065	0.977047	0.211364	-0.026552	-0.211818	0.977184	-0.015641	0.022640	0.020906	0.999525						
04302														1.710142	-9.528117	0.549115	0.977337	0.209937	-0.027171	-0.210375	0.977515	-0.014391	0.023539	0.019781	0.999527						
04303														1.349713	-9.443753	0.487400	0.976826	0.212232	-0.027743	-0.212688	0.977010	-0.014663	0.023993	0.020223	0.999508						
04304														2.014471	-9.511954	0.544334	0.975925	0.216273	-0.028216	-0.216756	0.976105	-0.015338	0.024225	0.021085	0.999484						
04305														1.933536	-9.512723	0.371636	0.975691	0.217198	-0.029198	-0.217719	0.975880	-0.016000	0.025019	0.021968	0.999446						
04306														1.579150	-9.581054	0.328398	0.975253	0.219020	-0.030213	-0.219602	0.975433	-0.017464	0.025646	0.023667	0.999391						
04307														1.919573	-9.725772	0.374434	0.974274	0.223211	-0.031104	-0.223865	0.974427	-0.019404	0.025977	0.025868	0.999328						
04308														2.257993	-9.795062	0.455277	0.974097	0.223856	-0.032002	-0.224556	0.974252	-0.020204	0.026655	0.026867	0.999284						
04309														1.923641	-9.599926	0.485435	0.974039	0.224028	-0.032554	-0.224774	0.974176	-0.021389	0.026922	0.028151	0.999241						
04310														1.854318	-9.550802	0.456559	0.974120	0.223672	-0.032562	-0.224450	0.974225	-0.022545	0.026680	0.029270	0.999215						
04311														1.887320	-9.586990	0.345270	0.973944	0.224482	-0.032273	-0.225281	0.974006	-0.023678	0.026119	0.030331	0.999199						
04312														1.897278	-9.691104	0.315603	0.973829	0.225016	-0.032009	-0.225829	0.973858	-0.024545	0.025649	0.031131	0.999186						
04313														1.790221	-9.639701	0.369055	0.973585	0.226052	-0.032125	-0.226883	0.973598	-0.025109	0.025601	0.031735	0.999168						
04314														1.842784	-9.580171	0.335085	0.973184	0.227758	-0.032233	-0.228612	0.973173	-0.025882	0.025473	0.032557	0.999145						
04315														2.041974	-9.643116	0.359658	0.973290	0.227323	-0.032113	-0.228174	0.973275	-0.025923	0.025362	0.032558	0.999148						
04316														1.732108	-9.632235	0.314090	0.973552	0.226211	-0.032032	-0.227061	0.973534	-0.025971	0.025309	0.032558	0.999149						
04317														1.739942	-9.604956	0.257589	0.973422	0.226778	-0.031968	-0.227633	0.973394	-0.026210	0.025174	0.032791	0.999145						
04318														1.954975	-9.612793	0.187426	0.973087	0.228209	-0.031968	-0.229074	0.973045	-0.026622	0.025031	0.033229	0.999134						
04319														2.036628	-9.589028	0.297452	0.973536	0.226272	-0.032073	-0.227126	0.973517	-0.026050	0.025329	0.032646	0.999146						
04320														1.400217	-9.565992	0.109807	0.973639	0.225796	-0.032290	-0.226661	0.973621	-0.026208	0.025520	0.032836	0.999135						
04321														1.819751	-9.658308	0.158501	0.973018	0.228444	-0.032410	-0.229336	0.972969	-0.027128	0.025337	0.033828	0.999106						
04322														1.816529	-9.458755	0.044790	0.972522	0.230461	-0.033007	-0.231396	0.972456	-0.028023	0.025640	0.034891	0.999062						
04323														1.961406	-9.494942	0.193815	0.972304	0.231257	-0.033839	-0.232260	0.972207	-0.029484	0.026080	0.036527	0.998992						
04324														1.696802	-9.687816	0.176914	0.972235	0.231408	-0.034783	-0.232494	0.972094	-0.031305	0.026568	0.038523	0.998904						
04325														1.618419	-9.701938	0.200188	0.971324	0.235029	-0.035942	-0.236240	0.971091	-0.034247	0.026854	0.041756	0.998767						
04326														2.164037	-9.599109	0.276392	0.969386	0.242628	-0.037719	-0.244014	0.969031	-0.037901	0.027355	0.045945	0.998569						
04327														2.095387	-9.528601	0.426795	0.967702	0.248928	-0.039836	-0.250474	0.967291	-0.040140	0.028541	0.048821	0.998400						
04328														1.670485	-9.417632	0.394310	0.964447	0.261008	-0.041436	-0.262719	0.963901	-0.043273	0.028646	0.052621	0.998204						
04329														2.840614	-9.565834	0.653918	0.961476	0.271552	-0.042712	-0.273371	0.960863	-0.044835	0.028865	0.054784	0.998081						
04330														2.754035	-10.005997	0.488184	0.960933	0.273298	-0.043780	-0.275103	0.960476	-0.042484	0.030439	0.052868	0.998137						
04331														1.205384	-9.682783	0.085295	0.959337	0.278635	-0.045113	-0.280457	0.958998	-0.040823	0.031889	0.051815	0.998147						
04332														2.227214	-9.671616	0.308193	0.955360	0.291886	-0.045717	-0.293711	0.955053	-0.040096	0.031959	0.051734	0.998149						
04333														3.034506	-9.599431	0.251950	0.954174	0.295670	-0.046167	-0.297389	0.954070	-0.036198	0.033344	0.048269	0.998278						
04334														1.647192	-9.531579	0.050647	0.954525	0.294449	-0.046715	-0.296024	0.954669	-0.031269	0.035391	0.043676	0.998419						
04335														1.191130	-9.354325	0.105945	0.952855	0.299840	-0.046503	-0.301335	0.953070	-0.029240	0.035553	0.041874	0.998490						
04336														1.767597	-9.262096	0.080867	0.949828	0.309396	-0.045839	-0.310882	0.949983	-0.029742	0.034344	0.042501	0.998506						
04337														2.141912	-9.439306	0.256177	0.947683	0.315989	-0.045256	-0.317464	0.947791	-0.030146	0.033368	0.042936	0.998520						
04338														1.622227	-9.853535	0.124147	0.946418	0.319913	-0.044141	-0.321329	0.946500	-0.029764	0.032258	0.042353	0.998582						
04339														1.562170	-10.684902	0.105188	0.946785	0.319056	-0.042440	-0.320299	0.946945	-0.026517	0.031728	0.038699	0.998747						
04340														0.715680	-10.608852	-0.501474	0.946523	0.319885	-0.042042	-0.320956	0.946847	-0.021649	0.032883	0.033985	0.998881						
04341														1.400718	-10.017899	-0.103196	0.944708	0.325090	-0.042938	-0.325947	0.945276	-0.014563	0.035854	0.027753	0.998972						
04342														1.741000	-9.566663	0.098370	0.943090	0.329387	-0.045654	-0.329998	0.943960	-0.006339	0.041008	0.021044	0.998937						
04343														1.385500	-9.206961	0.816282	0.941078	0.334452	-0.050149	-0.334754	0.942302	0.002504	0.048093	0.014431	0.998739						
04344														1.031129	-8.855445	1.495908	0.936751	0.345684	-0.054767	-0.345654	0.938305	0.010321	0.054956	0.009262	0.998446						
04345														1.507448	-8.942882	1.675704	0.929024	0.365436	-0.058056	-0.365122	0.930817	0.016296	0.059995	0.006058	0.998180						
04346														2.417493	-9.299191	2.209684	0.920075	0.387213	-0.059408	-0.386294	0.921989	0.026703	0.065113	-0.001620	0.997877						
04347														2.401234	-9.656598	2.821773	0.911398	0.407079	-0.060332	-0.405031	0.913266	0.043528	0.072819	-0.015235	0.997229						
04348														1.988793	-9.925963	3.469983	0.900460	0.430751	-0.060216	-0.427030	0.901854	0.065614	0.082569	-0.033368	0.996027						
04349														2.258190	-10.340214	3.868635	0.887145	0.457790	-0.058320	-0.451952	0.887404	0.090847	0.093343	-0.054237	0.994156						
04350														2.925217	-10.758010	3.662512	0.874545	0.482037	-0.053014	-0.473223	0.872183	0.123927	0.105975	-0.083292	0.990874						
04351														2.866629	-10.545382	3.703709	0.866009	0.497843	-0.046697	-0.484534	0.858575	0.167558	0.123511	-0.122480	0.984756						
04352														2.348159	-10.257149	3.754323	0.856562	0.514549	-0.039240	-0.495176	0.840951	0.218178	0.145262	-0.167453	0.975120						
04353														2.364225	-9.883427	3.822286	0.844676	0.534551	-0.027887	-0.507874	0.816800	0.273684	0.169076	-0.217011	0.961415						
04354														3.230051	-9.851800	4.384942	0.835260	0.549705	-0.012861	-0.514371	0.789411	0.335041	0.194326	-0.273231	0.942116						
04355														1.945289	-9.328244	4.520564	0.831004	0.556265	0.001520	-0.509927	0.760681	0.401669	0.222278	-0.334564	0.915784						
04356														1.101331	-8.753189	4.749081	0.824169	0.565947	0.021208	-0.508428	0.722871	0.467930	0.249493	-0.396436	0.883511						
04357														1.249194	-8.477768	4.988089	0.813566	0.579396	0.049093	-0.512748	0.675032	0.530491	0.274225	-0.456762	0.846268						
04358														2.116836	-8.481419	5.783175	0.806540	0.585885	0.078948	-0.510441	0.622781	0.592954	0.298235	-0.518539	0.801357						
04359														1.953740	-7.730347	6.663194	0.809214	0.578818	0.100712	-0.492116	0.574147	0.654353	0.320927	-0.579073	0.749453						
04360														0.478959	-6.788357	6.962250	0.812859	0.569591	0.121762	-0.474278	0.525910	0.706030	0.338112	-0.631652	0.697635						
04361														0.400873	-6.228805	7.290553	0.812075	0.563852	0.150352	-0.468855	0.477035	0.743379	0.347433	-0.674172	0.651753						
04362														2.199263	-5.968432	7.124159	0.808970	0.559759	0.179547	-0.470518	0.433468	0.768582	0.352393	-0.706240	0.614039						
04363														2.935403	-5.585243	6.211819	0.811818	0.551031	0.193175	-0.461449	0.402713	0.790498	0.357795	-0.730881	0.581202						
04364														1.579774	-4.752014	5.174811	0.816205	0.543013	0.197350	-0.448887	0.380953	0.808317	0.363745	-0.748340	0.554687						
04365														0.606252	-3.714405	4.775768	0.815852	0.540681	0.205060	-0.446741	0.364172	0.817191	0.367162	-0.758316	0.538655						
04366														1.486991	-3.418654	5.043682	0.813679	0.540218	0.214688	-0.451960	0.355630	0.818083	0.365593	-0.762687	0.533526						
04367														1.340752	-2.913824	5.049199	0.817616	0.535118	0.212492	-0.449220	0.362031	0.816783	0.360147	-0.763271	0.536388						
04368														0.277553	-3.015360	4.890409	0.822051	0.529606	0.209163	-0.450281	0.379774	0.808096	0.348537	-0.758479	0.550665						
04369														0.423646	-3.752560	5.351650	0.825388	0.524988	0.207658	-0.457525	0.406508	0.790837	0.330765	-0.747756	0.575722						
04370														1.780652	-5.153763	5.742980	0.830763	0.519244	0.200547	-0.462677	0.443861	0.767410	0.309458	-0.730324	0.608985						
04371														1.483623	-6.237521	5.289692	0.838837	0.511575	0.186129	-0.463410	0.491615	0.737269	0.285665	-0.704702	0.649454						
04372														0.900182	-7.485855	5.356235	0.841226	0.510466	0.178224	-0.475989	0.542827	0.691934	0.256464	-0.666906	0.699616						
04373														1.811511	-9.172361	5.349017	0.835582	0.520252	0.176466	-0.501826	0.592117	0.630530	0.223546	-0.615415	0.755838						
04374														2.859174	-9.700774	4.438821	0.828525	0.533969	0.168592	-0.526242	0.639629	0.560307	0.191350	-0.552948	0.810946						
04375														3.066618	-10.049788	4.130947	0.825389	0.544059	0.150775	-0.541349	0.686905	0.484873	0.160231	-0.481831	0.861490						
04376														2.889206	-11.250246	3.956474	0.825348	0.549736	0.128804	-0.550515	0.732826	0.399874	0.125434	-0.400944	0.907475						
04377														2.053949	-11.934287	2.683364	0.826567	0.552235	0.108738	-0.556258	0.772056	0.307418	0.085815	-0.314588	0.945341						
04378														2.913224	-12.027881	0.917593	0.824910	0.557994	0.090369	-0.563414	0.798705	0.211269	0.045709	-0.225194	0.973241						
04379														5.149133	-12.097100	0.138623	0.829353	0.554469	0.068828	-0.558613	0.820404	0.122023	0.011192	-0.139648	0.990138						
04380														5.607348	-12.125132	-0.533940	0.848432	0.527538	0.043214	-0.529155	0.847303	0.045518	-0.012602	-0.061486	0.998028						
04381														4.989499	-11.844925	-0.319522	0.874533	0.484467	0.021995	-0.484142	0.874792	-0.018590	-0.028247	0.005609	0.999585						
04382														4.020085	-11.920269	-0.140998	0.899328	0.437192	0.008457	-0.435338	0.896997	-0.076664	-0.041102	0.065264	0.997021						
04383														3.664538	-12.045295	0.062764	0.919079	0.394068	0.002184	-0.390547	0.911578	-0.128446	-0.052607	0.117199	0.991714						
04384														3.161863	-11.517298	-0.154522	0.932554	0.361031	-0.000366	-0.355699	0.918607	-0.172160	-0.061819	0.160678	0.985069						
04385														2.753097	-10.366306	-0.360060	0.938361	0.345615	-0.005397	-0.339002	0.917133	-0.209632	-0.067502	0.198540	0.977765						
04386														3.235175	-9.479081	-0.017699	0.938891	0.343884	-0.015105	-0.337021	0.909454	-0.243538	-0.070012	0.233746	0.969774						
04387														3.602699	-9.117548	0.860762	0.938040	0.345523	-0.026360	-0.339226	0.900082	-0.273456	-0.070759	0.265455	0.961523						
04388														3.222772	-8.435864	1.756235	0.937975	0.344871	-0.035598	-0.339265	0.891845	-0.299185	-0.071433	0.292705	0.953531						
04389														3.308054	-7.717296	2.340628	0.939187	0.340775	-0.042423	-0.335597	0.884607	-0.323798	-0.072815	0.318344	0.945175						
04390														3.765842	-7.210996	2.560818	0.942130	0.332118	-0.045704	-0.326687	0.878889	-0.347607	-0.075278	0.342422	0.936526						
04391														3.933904	-7.286192	2.465569	0.947104	0.317740	-0.045109	-0.311251	0.875180	-0.370381	-0.078207	0.364830	0.927784						
04392														3.353305	-7.875033	2.252979	0.952023	0.302909	-0.043573	-0.295345	0.872140	-0.390054	-0.080150	0.384209	0.919760						
04393														2.836849	-8.183657	1.924844	0.955287	0.292496	-0.043276	-0.284417	0.868988	-0.404928	-0.080834	0.399131	0.913324						
04394														2.747393	-8.666499	1.118243	0.957206	0.286108	-0.043582	-0.278013	0.867190	-0.413146	-0.080410	0.407582	0.909621						
04395														2.471404	-8.657369	-0.087881	0.956129	0.289225	-0.046538	-0.281969	0.865538	-0.413929	-0.079439	0.408892	0.909119						
04396														2.325519	-9.609041	-0.557737	0.950679	0.305516	-0.053562	-0.300275	0.863225	-0.405804	-0.077744	0.401873	0.912389						
04397														1.937113	-11.644560	-0.305961	0.940090	0.334764	-0.064531	-0.332757	0.859789	-0.387344	-0.074185	0.385611	0.919674						
04398														1.898816	-13.097238	0.093452	0.924306	0.373961	-0.076233	-0.375292	0.854274	-0.359683	-0.069383	0.361067	0.929955						
04399														2.181472	-12.781521	-0.289576	0.905684	0.415468	-0.084403	-0.419361	0.848709	-0.322225	-0.062241	0.327229	0.942893						
04400														2.184362	-11.615221	-1.019535	0.885163	0.456990	-0.087444	-0.462416	0.843215	-0.274154	-0.051552	0.283106	0.957702						
04401														2.078094	-10.892566	-1.087547	0.863992	0.496382	-0.084391	-0.502199	0.837500	-0.215381	-0.036233	0.228469	0.972877						
04402														1.334701	-10.698787	-0.533211	0.841833	0.534434	-0.075484	-0.539489	0.828928	-0.147750	-0.016392	0.165103	0.986140						
04403														0.637219	-11.486626	0.283438	0.813855	0.577932	-0.060288	-0.581049	0.810272	-0.076421	0.004684	0.097226	0.995251						
04404														1.061454	-12.183441	1.384039	0.780022	0.624709	-0.036102	-0.625248	0.780411	-0.004924	0.025098	0.026414	0.999336						
04405														2.203452	-12.587750	2.110988	0.748833	0.662757	-0.001794	-0.661168	0.747219	0.067233	0.045899	-0.049160	0.997736						
04406														2.542429	-12.899327	2.172191	0.725611	0.687093	0.037306	-0.684491	0.715188	0.141347	0.070437	-0.128099	0.989257						
04407														2.248214	-12.908094	2.348008	0.707165	0.702780	0.077569	-0.700092	0.680631	0.215900	0.098934	-0.206983	0.973329						
04408														2.256791	-12.335703	2.516118	0.693644	0.710322	0.119586	-0.708690	0.643264	0.289777	0.128910	-0.285751	0.949594						
04409														2.330589	-11.707724	2.874684	0.686418	0.708633	0.163309	-0.709513	0.603373	0.364050	0.159441	-0.365760	0.916950						
04410														2.155483	-11.027695	3.405500	0.683382	0.700158	0.206804	-0.704659	0.558512	0.437630	0.190907	-0.444794	0.875050						
04411														1.684758	-10.024434	3.799145	0.680228	0.688504	0.251501	-0.698982	0.505968	0.505391	0.220712	-0.519576	0.825425						
04412														1.955444	-8.984631	4.489117	0.676825	0.672701	0.298967	-0.693944	0.447510	0.564071	0.245660	-0.589243	0.769703						
04413														2.702261	-8.329751	4.825739	0.676049	0.650896	0.345387	-0.686950	0.387165	0.614982	0.266567	-0.653021	0.708876						
04414														2.751663	-7.204182	4.696249	0.681438	0.622915	0.384213	-0.672994	0.327022	0.663427	0.287613	-0.710657	0.642063						
04415														1.852470	-6.038948	4.220765	0.693167	0.590528	0.413275	-0.652138	0.269627	0.708532	0.306978	-0.760643	0.572002						
04416														1.184973	-5.015490	4.060209	0.703108	0.557638	0.441224	-0.634636	0.212224	0.743100	0.320742	-0.802496	0.503114						
04417														1.401618	-4.184129	4.986577	0.709352	0.526091	0.469092	-0.624436	0.160337	0.764442	0.326953	-0.835177	0.442246						
04418														1.923357	-3.402158	5.176396	0.715979	0.497756	0.489503	-0.616734	0.122416	0.777595	0.327129	-0.858634	0.394631						
04419														2.473744	-2.823461	4.248815	0.722069	0.474748	0.503220	-0.612997	0.101860	0.783492	0.320703	-0.874208	0.364569						
04420														2.903174	-2.522189	3.916616	0.725421	0.459068	0.512856	-0.614199	0.095413	0.783362	0.310683	-0.883263	0.351174						
04421														3.284293	-2.088197	4.145021	0.725823	0.453086	0.517586	-0.618955	0.101882	0.778790	0.300126	-0.885626	0.354388						
04422														3.550710	-1.737868	4.474269	0.726801	0.456582	0.513120	-0.622908	0.123405	0.772500	0.289388	-0.881081	0.374100						
04423														3.389852	-1.655530	4.604944	0.727584	0.468391	0.501231	-0.627986	0.160643	0.761464	0.276144	-0.868795	0.411024						
04424														3.137391	-2.100563	5.325405	0.726176	0.484840	0.487441	-0.638626	0.213132	0.739413	0.254608	-0.848236	0.464403						
04425														3.679710	-3.917688	6.840519	0.718220	0.506475	0.477120	-0.659712	0.277648	0.698349	0.221224	-0.816330	0.533540						
04426														5.251191	-5.686048	6.702430	0.716484	0.532599	0.450543	-0.672844	0.357061	0.647911	0.184205	-0.767363	0.614185						
04427														6.211883	-6.917072	4.680594	0.719114	0.560275	0.411055	-0.678451	0.438176	0.589666	0.150261	-0.702918	0.695218						
04428														6.374015	-8.528825	4.400626	0.719523	0.592236	0.362689	-0.683466	0.511286	0.521019	0.123128	-0.622771	0.772655						
04429														4.940266	-9.618135	4.334806	0.737216	0.606265	0.298253	-0.667869	0.587046	0.457524	0.102293	-0.536487	0.837686						
04430														3.301190	-10.466257	2.883588	0.761588	0.604346	0.233985	-0.642925	0.659216	0.389977	0.081434	-0.447437	0.890600						
04431														4.061530	-11.506014	2.669350	0.775982	0.604842	0.178937	-0.628072	0.714799	0.307553	0.058117	-0.351040	0.934555						
04432														4.746884	-12.085545	2.475682	0.795435	0.593225	0.123968	-0.604946	0.764931	0.221179	0.036382	-0.250927	0.967322						
04433														4.295293	-12.486636	1.727116	0.821989	0.564879	0.072425	-0.569224	0.810932	0.135550	0.017838	-0.152647	0.988120						
04434														3.512672	-12.460772	0.734032	0.847677	0.529658	0.030105	-0.530512	0.846198	0.050061	0.001041	-0.058407	0.998292						
04435														3.438442	-12.038253	0.129039	0.869938	0.493155	-0.002470	-0.492948	0.869404	-0.033757	-0.014500	0.030584	0.999427						
04436														3.467151	-11.610376	-0.702873	0.889216	0.456778	-0.025479	-0.456642	0.882810	-0.110112	-0.027804	0.109548	0.993593						
04437														3.252823	-11.026401	-1.433929	0.906024	0.421399	-0.039288	-0.421474	0.889937	-0.174275	-0.038476	0.174457	0.983913						
04438														3.712278	-10.619270	-1.320662	0.919903	0.389560	-0.044956	-0.389230	0.893093	-0.225576	-0.047726	0.225006	0.973188						
04439														4.210383	-10.241522	-0.702833	0.935639	0.350334	-0.042965	-0.348971	0.899938	-0.261401	-0.052912	0.259570	0.964274						
04440														3.656661	-9.615222	-0.432898	0.952039	0.303987	-0.034827	-0.301170	0.910900	-0.282059	-0.054018	0.279020	0.958765						
04441														2.762150	-9.261778	0.238979	0.964639	0.262507	-0.023684	-0.257749	0.920724	-0.292971	-0.055101	0.288715	0.955828						
04442														2.190508	-9.117794	1.852998	0.972129	0.234019	-0.014151	-0.227363	0.926312	-0.300421	-0.057196	0.295265	0.953702						
04443														2.222984	-8.738924	3.191302	0.975666	0.219130	-0.007670	-0.210740	0.927503	-0.308752	-0.060543	0.302855	0.951112						
04444														2.948034	-8.322742	3.527860	0.976531	0.215314	-0.005240	-0.205696	0.925147	-0.319048	-0.063848	0.312638	0.947724						
04445														3.803912	-8.516916	3.099663	0.976018	0.217584	-0.006821	-0.207704	0.921403	-0.328444	-0.065180	0.321984	0.944499						
04446														3.922096	-8.823880	2.514861	0.975005	0.221958	-0.010027	-0.212596	0.918862	-0.332409	-0.064568	0.326232	0.943082						
04447														3.291062	-8.903533	2.018676	0.973661	0.227639	-0.012831	-0.219134	0.918776	-0.328377	-0.062963	0.322539	0.944460						
04448														2.894031	-8.960315	1.483839	0.970678	0.239792	-0.016853	-0.232709	0.919800	-0.315935	-0.060257	0.310593	0.948631						
04449														2.520376	-9.006835	1.318724	0.965476	0.259506	-0.022623	-0.254466	0.921014	-0.294924	-0.055699	0.290499	0.955253						
04450														2.236858	-9.524250	1.560085	0.956807	0.289125	-0.030449	-0.286540	0.920142	-0.266895	-0.049149	0.264092	0.963244						
04451														1.854591	-10.776072	1.558753	0.942502	0.331816	-0.039851	-0.331697	0.914203	-0.232831	-0.040825	0.232662	0.971700						
04452														2.297318	-11.371778	1.842789	0.922825	0.382416	-0.046396	-0.383902	0.903018	-0.192816	-0.031839	0.195747	0.980137						
04453														2.214297	-11.588972	1.579398	0.900910	0.431477	-0.046778	-0.433491	0.889356	-0.145365	-0.021120	0.151239	0.988272						
04454														1.542800	-11.807515	1.083958	0.875830	0.480899	-0.040712	-0.482543	0.871075	-0.091543	-0.008560	0.099821	0.994969						
04455														1.327130	-12.070183	1.030420	0.849708	0.526602	-0.026209	-0.527224	0.849139	-0.031596	0.005616	0.040665	0.999157						
04456														1.095366	-13.017433	1.465090	0.822308	0.569023	-0.004690	-0.568626	0.821994	0.031454	0.021754	-0.023198	0.999494						
04457														1.407184	-14.212496	2.193421	0.792966	0.608809	0.023582	-0.607984	0.788197	0.095393	0.039489	-0.089981	0.995160						
04458														2.130191	-14.693578	2.255148	0.764733	0.641869	0.056461	-0.641525	0.750263	0.159847	0.060240	-0.158462	0.985526						
04459														2.515710	-13.989854	1.607074	0.743737	0.662257	0.090945	-0.662664	0.712521	0.230631	0.087937	-0.231795	0.968782						
04460														2.255465	-13.029142	1.062050	0.731030	0.670799	0.124992	-0.671522	0.674766	0.306186	0.121049	-0.307766	0.943731						
04461														1.715221	-12.157213	1.863036	0.720380	0.674638	0.160987	-0.675727	0.630346	0.382175	0.156352	-0.384094	0.909959						
04462														1.151588	-11.064811	2.872698	0.709616	0.675505	0.200346	-0.678125	0.577573	0.454485	0.191293	-0.458369	0.867931						
04463														1.133815	-9.577411	3.106567	0.695857	0.674956	0.245391	-0.682582	0.515320	0.518197	0.223305	-0.528090	0.819302						
04464														2.054738	-8.114097	3.375546	0.680531	0.670302	0.295927	-0.688571	0.446976	0.571037	0.250495	-0.592375	0.765731						
04465														2.757374	-6.855638	3.987636	0.672487	0.655944	0.342782	-0.686981	0.380915	0.618839	0.275353	-0.651645	0.706781						
04466														2.891148	-5.564031	4.193161	0.673210	0.635089	0.378749	-0.675884	0.320723	0.663564	0.299949	-0.702708	0.645160						
04467														2.401572	-4.526208	4.273004	0.678525	0.611865	0.406479	-0.660722	0.266535	0.701716	0.321014	-0.744702	0.585123						
04468														1.953132	-3.397358	4.496611	0.682975	0.589404	0.431449	-0.648444	0.217327	0.729582	0.336253	-0.778057	0.530624						
04469														1.969691	-2.341447	4.898709	0.685100	0.568685	0.455231	-0.642405	0.177032	0.745637	0.343442	-0.803279	0.486611						
04470														2.223481	-2.195631	5.215674	0.684639	0.551498	0.476571	-0.643487	0.150239	0.750569	0.342337	-0.820535	0.457741						
04471														2.984569	-2.514018	5.491681	0.683457	0.538535	0.492814	-0.648152	0.137100	0.749067	0.335834	-0.831374	0.442755						
04472														3.457307	-2.608886	5.704022	0.684103	0.530214	0.500876	-0.652593	0.138231	0.744993	0.325769	-0.836520	0.440578						
04473														3.347905	-2.828617	5.554937	0.687475	0.526869	0.499788	-0.656182	0.155818	0.738340	0.311132	-0.835542	0.452843						
04474														3.334627	-3.462443	5.157222	0.690938	0.528773	0.492954	-0.661428	0.187203	0.726270	0.291750	-0.827861	0.479090						
04475														3.321333	-4.046068	4.798162	0.694048	0.534720	0.482049	-0.667759	0.227897	0.708633	0.269062	-0.813718	0.515236						
04476														3.497661	-3.882292	4.884651	0.697445	0.543378	0.467238	-0.674197	0.276465	0.684854	0.242959	-0.792659	0.559163						
04477														3.997737	-3.933552	5.262933	0.700028	0.556445	0.447581	-0.681993	0.335067	0.650089	0.211769	-0.760328	0.614048						
04478														4.731629	-4.222811	5.356037	0.706628	0.572479	0.415866	-0.685141	0.406719	0.604286	0.176801	-0.711932	0.679628						
04479														4.913962	-4.916989	4.278387	0.721898	0.585706	0.368526	-0.677551	0.490000	0.548475	0.140668	-0.645638	0.750576						
04480														5.087825	-7.372505	3.340167	0.738947	0.595477	0.315222	-0.665803	0.573664	0.477092	0.103266	-0.562421	0.820377						
04481														4.848055	-11.039141	3.028939	0.760417	0.597608	0.254224	-0.645323	0.651323	0.399170	0.072965	-0.467592	0.880928						
04482														2.985367	-12.025747	2.240179	0.794941	0.577027	0.187373	-0.604609	0.727948	0.323327	0.050171	-0.370313	0.927551						
04483														1.771036	-12.961997	-0.199578	0.823986	0.551175	0.131351	-0.565932	0.789249	0.238344	0.027701	-0.270727	0.962257						
04484														2.444830	-13.622883	-0.676526	0.843760	0.529364	0.088562	-0.536697	0.830585	0.148609	0.005110	-0.172921	0.984922						
04485														3.371446	-13.799415	-0.638675	0.860526	0.506658	0.052856	-0.509194	0.858525	0.060474	-0.014739	-0.078954	0.996769						
04486														3.963409	-14.217423	-0.360783	0.878639	0.476980	0.021988	-0.476624	0.878888	-0.019624	-0.028685	0.006762	0.999566						
04487														3.821804	-13.788639	-0.309822	0.896745	0.442534	-0.003517	-0.441010	0.892937	-0.090406	-0.036867	0.082622	0.995899						
04488														3.814275	-12.783578	-0.251473	0.912739	0.407867	-0.023476	-0.406436	0.900707	-0.153418	-0.041429	0.149572	0.987883						
04489														3.949644	-11.672957	0.212814	0.925629	0.376433	-0.038855	-0.375935	0.902883	-0.208506	-0.043407	0.207607	0.977249						
04490														3.875265	-10.631970	0.725139	0.936730	0.346592	-0.049095	-0.347281	0.902519	-0.254668	-0.043956	0.255605	0.965782						
04491														3.574551	-9.772924	0.995852	0.945515	0.320914	-0.054923	-0.322521	0.900142	-0.292788	-0.044521	0.294549	0.954599						
04492														3.544464	-9.040008	1.330143	0.951597	0.301855	-0.057842	-0.303898	0.895990	-0.323803	-0.045916	0.325708	0.944355						
04493														3.570182	-8.379963	1.640767	0.956050	0.287335	-0.058373	-0.289183	0.891202	-0.349474	-0.048394	0.350995	0.935126						
04494														3.592594	-8.093990	1.767054	0.959308	0.276689	-0.056313	-0.277448	0.886631	-0.370012	-0.052449	0.370580	0.927319						
04495														3.494952	-7.998169	1.915482	0.961468	0.269844	-0.052571	-0.268870	0.883080	-0.384550	-0.057344	0.383867	0.921606						
04496														3.477184	-8.028318	1.959383	0.962628	0.266508	-0.048179	-0.263590	0.881106	-0.392648	-0.062193	0.390674	0.918426						
04497														3.320489	-8.269782	1.854262	0.962702	0.266928	-0.044205	-0.262279	0.880563	-0.394739	-0.066442	0.391610	0.917729						
04498														2.926234	-8.591408	1.548961	0.961092	0.273065	-0.041693	-0.267251	0.881030	-0.390338	-0.069855	0.386293	0.919727						
04499														2.737719	-8.944466	1.032372	0.957260	0.286336	-0.040806	-0.280017	0.882178	-0.378619	-0.072415	0.373863	0.924653						
04500														2.663669	-9.213614	0.611531	0.950856	0.306910	-0.040972	-0.300671	0.883608	-0.358934	-0.073957	0.353614	0.932463						
04501														2.241765	-9.919767	0.405853	0.941404	0.334669	-0.041901	-0.329137	0.884418	-0.330870	-0.073674	0.325273	0.942746						
04502														1.784355	-10.907792	0.300311	0.927081	0.372335	-0.043450	-0.367946	0.881682	-0.295385	-0.071673	0.289833	0.954390						
04503														1.590311	-11.820712	0.275452	0.906649	0.419598	-0.043876	-0.416356	0.873130	-0.253559	-0.068083	0.248157	0.966324						
04504														1.682889	-12.394253	0.125981	0.880872	0.471624	-0.040429	-0.469232	0.858767	-0.205768	-0.062327	0.200226	0.977765						
04505														1.931833	-12.598534	-0.351439	0.852015	0.522537	-0.032028	-0.520981	0.840284	-0.150007	-0.051471	0.144494	0.988166						
04506														2.019571	-12.602185	-0.505335	0.820122	0.571840	-0.019990	-0.571218	0.816196	-0.086797	-0.033319	0.082603	0.996025						
04507														2.013524	-12.324944	0.083218	0.785958	0.618272	-0.002905	-0.618210	0.785792	-0.018636	-0.009239	0.016443	0.999822						
04508														1.901116	-11.925189	0.963279	0.754222	0.656250	0.022043	-0.656346	0.752511	0.054201	0.018981	-0.055348	0.998287						
04509														1.754902	-11.665043	1.792039	0.723398	0.688289	0.054348	-0.688683	0.713731	0.127683	0.049093	-0.129794	0.990325						
04510														1.846080	-11.692015	2.513669	0.691335	0.716437	0.093674	-0.718203	0.667216	0.197503	0.078998	-0.203818	0.975816						
04511														2.373386	-12.214352	3.377852	0.661212	0.736928	0.140485	-0.742509	0.616112	0.262842	0.107141	-0.278106	0.954556						
04512														2.446355	-11.831504	3.629789	0.642291	0.742612	0.189706	-0.754401	0.568781	0.327669	0.135430	-0.353574	0.925551						
04513														2.710306	-11.201471	3.408410	0.626672	0.740884	0.241605	-0.762233	0.518258	0.387826	0.162120	-0.427199	0.889504						
04514														3.280146	-10.672587	3.586411	0.618576	0.729176	0.292688	-0.762815	0.468022	0.446171	0.188353	-0.499257	0.845733						
04515														3.349964	-9.640312	4.010261	0.619253	0.708438	0.338587	-0.755155	0.419221	0.503979	0.215095	-0.567776	0.794584						
04516														3.135612	-8.189633	4.266474	0.624134	0.683237	0.379004	-0.743577	0.370481	0.556629	0.239896	-0.629230	0.739269						
04517														3.006019	-6.960644	4.361009	0.632245	0.654727	0.414245	-0.729427	0.322792	0.603110	0.261158	-0.683475	0.681659						
04518														2.902110	-5.568565	4.124239	0.640978	0.625007	0.445549	-0.714640	0.274147	0.643531	0.280066	-0.730897	0.622377						
04519														2.846654	-4.249752	4.192290	0.649420	0.596848	0.471195	-0.700516	0.228480	0.676072	0.295854	-0.769135	0.566481						
04520														2.456112	-3.660043	4.259381	0.656675	0.571819	0.491733	-0.688197	0.187641	0.700839	0.308484	-0.798632	0.516743						
04521														2.389298	-3.048296	4.549000	0.661750	0.550444	0.509017	-0.679371	0.153116	0.717642	0.317084	-0.820711	0.475281						
04522														2.615239	-2.530408	4.858614	0.666501	0.533291	0.520939	-0.672834	0.129379	0.728392	0.321046	-0.835980	0.445048						
04523														2.588128	-2.382173	4.758429	0.672817	0.520852	0.525385	-0.666732	0.119144	0.735713	0.320601	-0.845292	0.427431						
04524														2.448648	-2.269642	4.567092	0.679770	0.513600	0.523572	-0.661392	0.120748	0.740257	0.316976	-0.849491	0.421772						
04525														2.213982	-1.969786	4.538164	0.686168	0.511388	0.517354	-0.658465	0.134351	0.740522	0.309187	-0.848783	0.428919						
04526														2.343565	-1.990194	4.667665	0.690539	0.514372	0.508505	-0.660253	0.161213	0.733537	0.295333	-0.842278	0.450939						
04527														2.763134	-2.646922	5.019896	0.692717	0.522769	0.496846	-0.666675	0.201358	0.717634	0.275113	-0.828352	0.488001						
04528														3.476518	-3.437093	5.895796	0.694479	0.535949	0.480060	-0.675228	0.255003	0.692128	0.248529	-0.804818	0.538982						
04529														4.246898	-4.951671	6.115971	0.699634	0.552740	0.452759	-0.681492	0.325851	0.655278	0.214666	-0.767007	0.604664						
04530														4.983993	-6.380196	4.687893	0.710518	0.570379	0.412107	-0.680535	0.408016	0.608601	0.178987	-0.712875	0.678066						
04531														5.401765	-8.160671	3.163037	0.721828	0.587579	0.365671	-0.676609	0.488078	0.551344	0.145483	-0.645392	0.749869						
04532														5.951142	-10.098999	3.397615	0.732836	0.604145	0.312986	-0.669843	0.559860	0.487716	0.119423	-0.567068	0.814968						
04533														5.540808	-11.357040	3.817888	0.754601	0.606749	0.249867	-0.648979	0.633817	0.420834	0.096970	-0.479720	0.872047						
04534														4.607623	-12.947778	2.763356	0.779040	0.598327	0.187353	-0.622445	0.702224	0.345607	0.075222	-0.385858	0.919486						
04535														4.737917	-13.196844	1.934385	0.803476	0.580958	0.130057	-0.592548	0.759271	0.269062	0.057565	-0.293250	0.954301						
04536														4.310970	-12.983163	1.714332	0.827760	0.555451	0.079298	-0.559517	0.806617	0.190550	0.041878	-0.202098	0.978469						
04537														3.236574	-12.900589	1.535177	0.848720	0.527472	0.038052	-0.528248	0.842154	0.108310	0.025085	-0.112026	0.993389						
04538														3.261644	-12.431508	1.202620	0.864902	0.501887	0.007333	-0.501891	0.864518	0.026723	0.007072	-0.026793	0.999616						
04539														4.246414	-11.531470	1.085129	0.880175	0.474378	-0.016028	-0.474564	0.878878	-0.048603	-0.008969	0.050386	0.998690						
04540														4.373086	-10.620153	0.940062	0.897663	0.439417	-0.033365	-0.440172	0.890412	-0.115824	-0.021187	0.118657	0.992709						
04541														3.875240	-10.163607	0.809032	0.915238	0.400639	-0.042748	-0.401654	0.898846	-0.175356	-0.031831	0.177662	0.983577						
04542														3.488478	-9.884571	1.042067	0.931029	0.362125	-0.045290	-0.362663	0.904189	-0.225649	-0.040762	0.226510	0.973155						
04543														3.403428	-9.492138	1.127958	0.944518	0.325673	-0.042703	-0.324926	0.907401	-0.266546	-0.048059	0.265633	0.962876						
04544														3.182355	-9.056232	1.335882	0.955019	0.294134	-0.037738	-0.291624	0.908449	-0.299458	-0.053798	0.296993	0.953363						
04545														2.888953	-8.828314	1.628954	0.962048	0.270985	-0.032093	-0.266387	0.907143	-0.325776	-0.059167	0.321961	0.944902						
04546														2.786408	-8.823381	1.879288	0.965874	0.257535	-0.027627	-0.250994	0.904296	-0.345328	-0.063951	0.340477	0.938075						
04547														2.814048	-8.969390	1.926894	0.966734	0.254496	-0.025629	-0.246598	0.900715	-0.357635	-0.067932	0.352058	0.933510						
04548														2.867468	-9.058272	1.712448	0.965207	0.260159	-0.026330	-0.251791	0.897525	-0.362008	-0.070548	0.356042	0.931803						
04549														3.044978	-8.997867	1.420256	0.961412	0.273531	-0.029446	-0.265582	0.894853	-0.358753	-0.071781	0.352729	0.932968						
04550														3.011577	-9.041610	1.138026	0.955581	0.292795	-0.033689	-0.285927	0.893251	-0.346913	-0.071482	0.341136	0.937292						
04551														2.656102	-9.188258	0.855125	0.946623	0.319961	-0.039116	-0.314710	0.891125	-0.326885	-0.069734	0.321747	0.944254						
04552														2.452831	-9.566359	0.748453	0.932961	0.357081	-0.045580	-0.353765	0.886054	-0.299598	-0.066595	0.295637	0.952976						
04553														2.686068	-10.055622	0.734037	0.913631	0.403270	-0.051503	-0.401872	0.876697	-0.264390	-0.061468	0.262253	0.963040						
04554														2.830205	-10.678975	1.205802	0.891564	0.449672	-0.053928	-0.449819	0.865361	-0.220938	-0.052683	0.221238	0.973796						
04555														2.376208	-11.253671	1.300732	0.866198	0.496938	-0.052468	-0.498022	0.849920	-0.172076	-0.040917	0.175183	0.983685						
04556														2.285723	-11.730311	1.068834	0.836670	0.545863	-0.044903	-0.547060	0.828883	-0.116955	-0.026622	0.122418	0.992122						
04557														2.229354	-11.960013	0.975587	0.805978	0.591197	-0.029756	-0.591882	0.804140	-0.055092	-0.008642	0.062015	0.998038						
04558														2.137597	-11.774795	0.945942	0.772854	0.634536	-0.007724	-0.634448	0.772884	0.011232	0.013097	-0.003780	0.999907						
04559														2.082631	-11.893244	1.415702	0.738441	0.673948	0.022325	-0.673312	0.735128	0.078978	0.036815	-0.073352	0.996626						
04560														2.229426	-12.542393	2.265386	0.705601	0.705964	0.061170	-0.705948	0.692854	0.146934	0.061348	-0.146860	0.987253						
04561														2.299307	-13.001812	2.996535	0.678704	0.726606	0.106795	-0.729107	0.649192	0.216685	0.088114	-0.224930	0.970382						
04562														2.249849	-12.923445	3.398066	0.655890	0.738536	0.156117	-0.745884	0.602288	0.284439	0.116041	-0.303006	0.945897						
04563														2.568635	-12.671061	3.165237	0.639046	0.740713	0.207280	-0.755352	0.553501	0.350827	0.145133	-0.380764	0.913212						
04564														2.889094	-12.212104	3.352337	0.632296	0.730796	0.257175	-0.754375	0.505184	0.419176	0.176412	-0.459049	0.870720						
04565														2.533760	-10.882044	3.472699	0.632052	0.713073	0.303377	-0.745713	0.453199	0.488387	0.210765	-0.534918	0.818193						
04566														2.582956	-9.018978	3.854556	0.631488	0.693032	0.347750	-0.735789	0.394106	0.550723	0.244618	-0.603645	0.758798						
04567														2.286178	-7.459729	4.025058	0.635048	0.667681	0.388479	-0.721729	0.333576	0.606494	0.275357	-0.665529	0.693722						
04568														2.427238	-5.899012	4.364997	0.639145	0.639563	0.427146	-0.707716	0.271689	0.652168	0.301051	-0.719128	0.626277						
04569														3.085270	-5.126845	4.701282	0.641513	0.612817	0.461428	-0.695794	0.211560	0.686377	0.323004	-0.761378	0.562113						
04570														3.200184	-4.355366	4.685094	0.649617	0.587045	0.483090	-0.677872	0.159553	0.717657	0.344219	-0.793676	0.501590						
04571														2.322034	-3.204035	4.620399	0.661869	0.562446	0.495563	-0.657262	0.117529	0.744442	0.360465	-0.818438	0.447463						
04572														2.092216	-2.647448	4.742407	0.668618	0.542789	0.508261	-0.645575	0.084505	0.759007	0.369030	-0.835607	0.406913						
04573														2.352773	-2.525411	5.232764	0.671558	0.528417	0.519409	-0.641504	0.063853	0.764457	0.370786	-0.846580	0.381863						
04574														2.746076	-2.301568	5.098166	0.677407	0.518938	0.521366	-0.637409	0.060300	0.768162	0.367190	-0.852682	0.371623						
04575														2.827781	-2.035206	4.726024	0.685492	0.515031	0.514630	-0.633358	0.073191	0.770390	0.359108	-0.854041	0.376371						
04576														2.587472	-1.757659	4.853286	0.691338	0.517223	0.504512	-0.633921	0.099155	0.767016	0.346693	-0.850087	0.396428						
04577														2.702533	-1.912578	5.235428	0.696128	0.524867	0.489817	-0.638557	0.140863	0.756573	0.328103	-0.839448	0.433216						
04578														2.972112	-2.398843	5.361697	0.700480	0.537587	0.469391	-0.646019	0.198120	0.737162	0.303293	-0.819603	0.486071						
04579														3.275228	-3.425534	5.595352	0.702686	0.555059	0.445131	-0.657746	0.268217	0.703867	0.271297	-0.787381	0.553561						
04580														3.907678	-5.388458	6.117010	0.702643	0.577756	0.415319	-0.672343	0.348041	0.653316	0.232909	-0.738285	0.632999						
04581														4.683976	-7.380416	5.283588	0.708346	0.599702	0.372295	-0.678963	0.434649	0.591684	0.193017	-0.671892	0.715057						
04582														4.820536	-8.730931	4.258904	0.721594	0.613785	0.320266	-0.674731	0.519891	0.523880	0.155046	-0.594122	0.789291						
04583														4.881139	-9.933821	3.753348	0.735757	0.623732	0.263855	-0.666102	0.596088	0.448316	0.122348	-0.505606	0.854045						
04584														4.486060	-11.230154	3.438559	0.759833	0.618237	0.201091	-0.643473	0.671069	0.368252	0.092721	-0.409206	0.907719						
04585														3.995432	-13.025706	1.981702	0.786739	0.600542	0.142800	-0.613826	0.736649	0.283843	0.065266	-0.310964	0.948178						
04586														4.449999	-13.062586	1.639560	0.815089	0.572322	0.089873	-0.577681	0.791206	0.200694	0.043753	-0.215501	0.975523						
04587														4.502231	-12.568321	1.854475	0.843033	0.536144	0.042959	-0.537304	0.835829	0.112672	0.024502	-0.118068	0.992703						
04588														3.617212	-12.371139	1.639223	0.869635	0.493675	0.004486	-0.493639	0.869365	0.022917	0.007414	-0.022144	0.999727						
04589														3.313627	-11.521679	1.051621	0.891226	0.452924	-0.024018	-0.453492	0.888923	-0.064505	-0.007866	0.068381	0.997628						
04590														3.795274	-10.604232	0.491205	0.908220	0.416206	-0.043696	-0.417911	0.896493	-0.147146	-0.022070	0.151902	0.988149						
04591														4.511634	-10.150462	0.059422	0.923216	0.380456	-0.054082	-0.382646	0.897171	-0.220604	-0.035409	0.224360	0.973863						
04592														4.868807	-10.112479	-0.013484	0.936585	0.346013	-0.055527	-0.347260	0.895064	-0.279771	-0.047104	0.281311	0.958460						
04593														4.860664	-9.758989	-0.006322	0.949667	0.309446	-0.048734	-0.308133	0.894721	-0.323308	-0.056443	0.322052	0.945038						
04594														4.110649	-9.201766	-0.068784	0.962367	0.269722	-0.033158	-0.263968	0.898819	-0.349922	-0.064579	0.345506	0.936192						
04595														2.835626	-8.954787	0.593135	0.971039	0.238450	-0.015021	-0.227234	0.902284	-0.366399	-0.073815	0.359200	0.930337						
04596														2.101670	-9.291970	1.282155	0.975466	0.220146	0.001221	-0.203592	0.904197	-0.375470	-0.083762	0.366009	0.926834						
04597														2.107237	-9.708856	2.003032	0.976241	0.216371	0.011685	-0.195990	0.904709	-0.378271	-0.092418	0.366994	0.925621						
04598														2.442606	-9.548763	2.462390	0.974758	0.222634	0.016770	-0.200295	0.905187	-0.374857	-0.098635	0.362036	0.926931						
04599														2.752974	-9.257257	2.539344	0.970784	0.239427	0.015925	-0.217057	0.904497	-0.367113	-0.102301	0.352931	0.930040						
04600														2.948119	-9.385822	2.351536	0.964651	0.263317	0.010612	-0.242746	0.903520	-0.353167	-0.102583	0.338107	0.935500						
04601														2.773582	-9.633430	1.901494	0.955836	0.293893	0.001978	-0.276757	0.902328	-0.330470	-0.098908	0.315327	0.943815						
04602														2.315775	-10.065450	1.497929	0.942649	0.333637	-0.009943	-0.321166	0.898492	-0.299273	-0.090915	0.285303	0.954116						
04603														2.153193	-10.809191	1.418015	0.923664	0.382560	-0.022203	-0.374707	0.889532	-0.261396	-0.080250	0.249762	0.964976						
04604														2.517801	-11.677199	1.447766	0.899626	0.435599	-0.030438	-0.431500	0.876144	-0.214895	-0.066940	0.206459	0.976163						
04605														2.023068	-11.734636	1.100865	0.872944	0.486747	-0.032361	-0.485354	0.859951	-0.157847	-0.049003	0.153498	0.986933						
04606														1.501042	-11.723095	0.583294	0.840757	0.540707	-0.027630	-0.540734	0.836054	-0.092847	-0.027103	0.093002	0.995297						
04607														1.498060	-11.651370	0.694182	0.800043	0.599779	-0.013990	-0.599937	0.799721	-0.022857	-0.002521	0.026679	0.999641						
04608														1.923270	-12.202858	1.307184	0.754512	0.656184	0.011618	-0.655828	0.753205	0.050719	0.024530	-0.045888	0.998645						
04609														2.474984	-13.087662	2.115648	0.709255	0.703175	0.050022	-0.702885	0.699964	0.126504	0.053940	-0.124883	0.990704						
04610														2.925813	-14.211188	2.703309	0.672926	0.733067	0.098913	-0.734640	0.646683	0.205197	0.086457	-0.210748	0.973710						
04611														2.977851	-14.263279	2.949287	0.648168	0.746053	0.152587	-0.751364	0.593992	0.287447	0.123816	-0.300962	0.945564						
04612														2.924744	-13.412501	3.004275	0.632880	0.745874	0.207691	-0.756587	0.538805	0.370493	0.164436	-0.391614	0.905317						
04613														2.816885	-12.457077	3.468884	0.622311	0.736596	0.264869	-0.755351	0.476316	0.450076	0.205362	-0.480156	0.852805						
04614														2.701593	-10.797119	3.783853	0.618698	0.717416	0.320197	-0.746166	0.409052	0.525274	0.245863	-0.563906	0.788392						
04615														2.574351	-8.518085	3.561555	0.620183	0.691708	0.370018	-0.730761	0.337911	0.593132	0.285241	-0.638245	0.715039						
04616														2.608793	-6.608876	3.481515	0.619866	0.663586	0.418831	-0.716632	0.261263	0.646668	0.319695	-0.700995	0.637496						
04617														2.502562	-5.112748	3.980833	0.625764	0.630403	0.459360	-0.697215	0.188009	0.691768	0.349729	-0.753157	0.557176						
04618														2.373011	-3.857573	4.199504	0.632448	0.597843	0.492538	-0.677901	0.119539	0.725369	0.374779	-0.792650	0.480881						
04619														2.095151	-2.930094	4.218409	0.638048	0.568180	0.519680	-0.662275	0.060661	0.746801	0.392793	-0.820666	0.414996						
04620														2.066961	-2.375739	4.315843	0.643966	0.542291	0.539656	-0.650027	0.015847	0.759746	0.403451	-0.840042	0.362709						
04621														1.954256	-2.351389	4.362506	0.649660	0.521941	0.552738	-0.641723	-0.013315	0.766821	0.407595	-0.852878	0.326291						
04622														1.904537	-2.317924	4.488548	0.655262	0.507678	0.559370	-0.636514	-0.027696	0.770768	0.406794	-0.861102	0.304996						
04623														2.071603	-2.239429	4.426119	0.661478	0.500089	0.558889	-0.634271	-0.024612	0.772719	0.400184	-0.865624	0.300912						
04624														2.288998	-2.583336	4.835263	0.665054	0.499805	0.554886	-0.637407	-0.007254	0.770493	0.389122	-0.866108	0.313755						
04625														2.806426	-2.692559	6.071899	0.667007	0.507388	0.545582	-0.644790	0.026220	0.763910	0.373293	-0.861319	0.344647						
04626														3.094631	-3.065456	6.702408	0.670549	0.521107	0.528026	-0.653957	0.079125	0.752383	0.350292	-0.849815	0.393839						
04627														3.656383	-3.458765	6.636204	0.673831	0.540456	0.503844	-0.665603	0.147914	0.731502	0.320819	-0.828268	0.459398						
04628														4.313685	-3.498950	6.187382	0.680512	0.563164	0.468774	-0.675224	0.233521	0.699671	0.284561	-0.792663	0.539176						
04629														5.055749	-4.815816	4.834918	0.689254	0.587204	0.424406	-0.682736	0.330354	0.651718	0.242488	-0.738957	0.628604						
04630														5.576739	-6.772985	4.039094	0.699731	0.609445	0.372764	-0.685655	0.426364	0.589993	0.200636	-0.668424	0.716209						
04631														5.530550	-8.545139	3.768898	0.712932	0.627383	0.313239	-0.681588	0.514988	0.519832	0.164820	-0.584105	0.794768						
04632														4.711681	-10.227626	3.350795	0.732495	0.634483	0.246745	-0.667761	0.599112	0.441770	0.132467	-0.488360	0.862529						
04633														3.908653	-12.241349	3.105614	0.750699	0.633805	0.186394	-0.653235	0.669982	0.352715	0.098672	-0.386542	0.916978						
04634														4.345777	-13.529490	2.520622	0.767974	0.626760	0.131864	-0.636928	0.725693	0.260178	0.067376	-0.283797	0.956514						
04635														4.618432	-13.589324	1.751188	0.790511	0.607043	0.081188	-0.610977	0.772468	0.173205	0.042428	-0.186524	0.981534						
04636														4.258119	-13.022703	1.636348	0.816014	0.576921	0.035833	-0.577629	0.811559	0.087845	0.021599	-0.092381	0.995489						
04637														3.313165	-12.515979	1.373247	0.841656	0.540014	0.000461	-0.540013	0.841651	0.003191	0.001335	-0.002934	0.999995						
04638														3.462049	-11.491800	1.049429	0.863456	0.503826	-0.024555	-0.504124	0.860237	-0.076498	-0.017419	0.078431	0.996767						
04639														4.067387	-10.817599	0.723791	0.884573	0.464543	-0.041604	-0.465248	0.872593	-0.148746	-0.032796	0.150933	0.988000						
04640														3.708665	-10.401422	0.628325	0.902740	0.427075	-0.051644	-0.427821	0.878713	-0.211740	-0.045049	0.213240	0.975961						
04641														3.400723	-10.020961	0.856579	0.917814	0.392991	-0.056356	-0.393305	0.880689	-0.264005	-0.054119	0.264472	0.962874						
04642														3.322524	-9.371430	0.654197	0.929627	0.364074	-0.056958	-0.363524	0.880727	-0.303596	-0.060367	0.302936	0.951097						
04643														3.089264	-8.873237	0.921912	0.937567	0.343318	-0.055692	-0.341641	0.879053	-0.332486	-0.065192	0.330754	0.941462						
04644														2.845489	-8.814042	1.191958	0.941893	0.331601	-0.053647	-0.328737	0.877111	-0.350154	-0.069057	0.347444	0.935155						
04645														2.863467	-8.646175	1.655704	0.942996	0.328704	-0.052077	-0.324973	0.875719	-0.357083	-0.071770	0.353651	0.932620						
04646														2.965300	-8.409966	2.066337	0.940983	0.334470	-0.051780	-0.330316	0.874197	-0.355908	-0.073775	0.352007	0.933085						
04647														3.301472	-8.451879	2.605810	0.936377	0.347063	-0.052391	-0.342868	0.872515	-0.348079	-0.075093	0.343897	0.936000						
04648														3.466716	-9.280107	2.858303	0.930533	0.362441	-0.052398	-0.358457	0.872180	-0.332882	-0.074950	0.328540	0.941511						
04649														3.568546	-9.984955	2.457918	0.923566	0.379826	-0.052517	-0.376661	0.873049	-0.309695	-0.071781	0.305805	0.949384						
04650														3.111505	-10.740787	1.812226	0.914662	0.400681	-0.053378	-0.398991	0.873747	-0.278158	-0.064814	0.275718	0.959051						
04651														2.249226	-11.683663	1.715689	0.900221	0.431797	-0.056158	-0.432003	0.869514	-0.239412	-0.054547	0.239784	0.969293						
04652														1.916871	-12.352850	1.884021	0.878555	0.474103	-0.058037	-0.475704	0.857572	-0.195643	-0.042984	0.199491	0.978956						
04653														1.978091	-11.878942	1.120976	0.849589	0.524549	-0.055197	-0.526573	0.837510	-0.145937	-0.030323	0.153051	0.987753						
04654														2.673813	-11.262579	0.311164	0.814379	0.578532	-0.045697	-0.580135	0.809511	-0.090196	-0.015190	0.099964	0.994875						
04655														3.002085	-11.144382	0.357712	0.780302	0.624778	-0.027943	-0.625380	0.779877	-0.026294	0.005364	0.037992	0.999264						
04656														2.276949	-11.690559	0.917117	0.746567	0.665308	-0.001851	-0.664657	0.745953	0.042249	0.029490	-0.030311	0.999105						
04657														1.770680	-12.413714	1.506250	0.712576	0.700736	0.034715	-0.699431	0.705624	0.113536	0.055063	-0.105184	0.992927						
04658														1.829599	-12.649378	1.781538	0.680095	0.728497	0.082239	-0.728779	0.659600	0.183873	0.079706	-0.184985	0.979504						
04659														2.342690	-13.174344	2.134735	0.649267	0.748021	0.137538	-0.753509	0.608074	0.249939	0.103326	-0.265913	0.958443						
04660														2.983179	-13.532696	2.694464	0.628488	0.752767	0.195817	-0.766904	0.557682	0.317568	0.129851	-0.349761	0.927796						
04661														2.857067	-13.218399	3.009546	0.622715	0.741219	0.250641	-0.765767	0.511532	0.389789	0.160708	-0.434660	0.886140						
04662														2.447780	-12.000416	3.458750	0.624041	0.721119	0.300932	-0.757096	0.462711	0.461198	0.193334	-0.515641	0.834707						
04663														2.384443	-10.247230	3.734045	0.629437	0.695508	0.346521	-0.743550	0.409565	0.528574	0.225705	-0.590360	0.774941						
04664														2.520973	-7.992194	3.697337	0.637465	0.667266	0.385220	-0.726386	0.353765	0.589248	0.256908	-0.655444	0.710205						
04665														2.246242	-5.783157	3.434663	0.646364	0.638751	0.417385	-0.707672	0.297281	0.640956	0.285331	-0.709663	0.644178						
04666														2.194195	-4.126370	3.477426	0.653975	0.611175	0.445850	-0.690675	0.241879	0.681515	0.308683	-0.753631	0.580306						
04667														1.942222	-2.864069	3.887639	0.660321	0.585410	0.470394	-0.676515	0.191755	0.711026	0.326042	-0.787734	0.522658						
04668														1.940993	-2.290701	4.050654	0.664201	0.563371	0.491376	-0.667389	0.150741	0.729293	0.336792	-0.812336	0.476110						
04669														2.146367	-2.044782	4.214743	0.665838	0.546575	0.507853	-0.663145	0.121620	0.738544	0.341905	-0.828531	0.443438						
04670														2.315306	-1.962698	4.538425	0.666895	0.535616	0.518041	-0.661920	0.106537	0.741965	0.342218	-0.837714	0.425584						
04671														2.461790	-2.000671	4.882530	0.669031	0.530869	0.520168	-0.661807	0.107006	0.741998	0.338243	-0.840671	0.422923						
04672														2.417513	-2.377807	4.857869	0.671949	0.532486	0.514725	-0.662872	0.122473	0.738648	0.330280	-0.837531	0.435266						
04673														2.356977	-2.608679	5.210962	0.671578	0.541133	0.506121	-0.669154	0.149659	0.727897	0.318143	-0.827513	0.462609						
04674														2.615893	-3.423432	5.807029	0.669414	0.555294	0.493491	-0.680264	0.191242	0.707578	0.298538	-0.809367	0.505767						
04675														3.165894	-4.401241	6.110646	0.664970	0.574544	0.477194	-0.695892	0.244622	0.675199	0.271199	-0.781063	0.562487						
04676														4.233701	-5.370164	6.163204	0.662082	0.597618	0.452217	-0.711226	0.310844	0.630502	0.236231	-0.739073	0.630846						
04677														5.301958	-6.645538	5.270824	0.667841	0.621170	0.410044	-0.717352	0.390266	0.577147	0.198480	-0.679588	0.706233						
04678														5.608520	-7.819771	3.620793	0.683850	0.639001	0.352174	-0.710938	0.475041	0.518560	0.164063	-0.604991	0.779146						
04679														5.143301	-8.633759	2.562645	0.702847	0.650754	0.287271	-0.698197	0.553828	0.453648	0.136115	-0.519417	0.843611						
04680														4.378115	-10.529468	2.508378	0.722507	0.654828	0.221774	-0.682958	0.626137	0.376192	0.107480	-0.423264	0.899609						
04681														3.724797	-13.652631	1.798152	0.743156	0.649479	0.160922	-0.664442	0.687920	0.292033	0.078968	-0.323950	0.942773						
04682														3.474056	-14.269206	1.314595	0.766816	0.632603	0.108663	-0.639557	0.738674	0.212903	0.054417	-0.232753	0.971012						
04683														4.247398	-13.579447	1.357496	0.788678	0.611462	0.064049	-0.613940	0.777749	0.134852	0.032643	-0.145676	0.988794						
04684														4.262256	-13.364549	1.923384	0.810197	0.585653	0.024322	-0.586021	0.808412	0.055215	0.012674	-0.058988	0.998178						
04685														4.274520	-12.488096	1.952687	0.834259	0.551291	-0.009525	-0.551369	0.834057	-0.018491	-0.002250	0.020678	0.999784						
04686														4.180313	-11.015375	1.204769	0.859474	0.509983	-0.034961	-0.511011	0.855424	-0.084361	-0.013116	0.090372	0.995822						
04687														3.654721	-9.873032	0.874232	0.880368	0.471334	-0.052886	-0.473781	0.868760	-0.144183	-0.022013	0.151990	0.988137						
04688														3.033563	-9.138873	1.192033	0.895740	0.439760	-0.065271	-0.443554	0.874038	-0.198288	-0.030150	0.206566	0.977968						
04689														2.794344	-8.661229	1.456249	0.905891	0.416956	-0.074221	-0.421869	0.873001	-0.244736	-0.037249	0.253016	0.966745						
04690														3.084393	-8.333841	1.550975	0.911879	0.402512	-0.080383	-0.408094	0.868069	-0.282695	-0.044010	0.290587	0.955836						
04691														3.377525	-8.375395	1.416524	0.916019	0.392228	-0.084067	-0.398104	0.863190	-0.310510	-0.049225	0.317901	0.946845						
04692														3.546095	-8.403362	1.261049	0.919084	0.384647	-0.085624	-0.390545	0.860157	-0.328032	-0.052526	0.334929	0.940778						
04693														3.479983	-8.485742	1.364936	0.921344	0.379242	-0.085446	-0.385007	0.859738	-0.335589	-0.053808	0.342091	0.938125						
04694														3.178657	-9.007097	1.437379	0.922582	0.376633	-0.083611	-0.382048	0.861734	-0.333848	-0.053688	0.339945	0.938911						
04695														2.744946	-9.937016	1.553716	0.921373	0.380063	-0.081386	-0.385119	0.864423	-0.323195	-0.052482	0.329127	0.942826						
04696														2.509383	-11.083735	1.637298	0.915453	0.394150	-0.081188	-0.399235	0.864173	-0.306294	-0.050565	0.312811	0.948469						
04697														2.931880	-11.525052	1.523430	0.905517	0.416218	-0.082464	-0.421711	0.861338	-0.283297	-0.046884	0.291307	0.955480						
04698														3.381825	-11.300906	0.772999	0.894133	0.440000	-0.083216	-0.446102	0.859056	-0.251028	-0.038965	0.261576	0.964396						
04699														2.809697	-10.744902	0.526606	0.879437	0.468555	-0.083941	-0.475274	0.854472	-0.209744	-0.026551	0.224352	0.974146						
04700														2.076926	-9.917635	0.644395	0.859747	0.504143	-0.081698	-0.510557	0.844370	-0.162389	-0.012884	0.181325	0.983339						
04701														1.814998	-9.685701	0.720530	0.835109	0.545195	-0.073176	-0.550083	0.827940	-0.109194	0.001054	0.131442	0.991323						
04702														1.425613	-10.103546	1.219010	0.802923	0.593267	-0.057868	-0.595883	0.801378	-0.052128	0.015448	0.076338	0.996962						
04703														0.990270	-11.461267	2.235504	0.764706	0.643480	-0.034035	-0.643731	0.765239	0.004432	0.028897	0.018520	0.999411						
04704														1.657284	-12.493732	2.767928	0.724640	0.689123	-0.002628	-0.687841	0.723514	0.058327	0.042096	-0.040458	0.998294						
04705														2.724815	-12.631224	2.338000	0.695195	0.718028	0.033762	-0.716271	0.688011	0.116604	0.060496	-0.105245	0.992604						
04706														2.761445	-12.574979	2.102127	0.675088	0.734317	0.070962	-0.732818	0.656387	0.179258	0.085054	-0.173017	0.981239						
04707														1.976778	-12.545155	2.593169	0.661476	0.741965	0.109261	-0.741321	0.624817	0.245045	0.113547	-0.243089	0.963335						
04708														1.356822	-12.532814	3.421062	0.647082	0.747014	0.152498	-0.749194	0.585912	0.308893	0.141397	-0.314130	0.938791						
04709														1.738162	-11.908808	3.946105	0.629073	0.750776	0.201502	-0.759132	0.537548	0.367098	0.167291	-0.383898	0.908095						
04710														2.738142	-11.142666	4.041593	0.613515	0.748215	0.252535	-0.765863	0.485812	0.421237	0.192491	-0.451842	0.871083						
04711														3.510729	-10.107977	4.131605	0.607388	0.735816	0.299425	-0.763482	0.436552	0.475938	0.219489	-0.517685	0.826939						
04712														3.588677	-8.693952	4.618173	0.610765	0.715468	0.339221	-0.752033	0.390072	0.531309	0.247814	-0.579611	0.776299						
04713														2.797361	-7.500936	4.436428	0.620385	0.690490	0.371950	-0.734323	0.344801	0.584706	0.275485	-0.635874	0.720952						
04714														2.474657	-6.285411	3.979239	0.625463	0.665829	0.406777	-0.720227	0.292151	0.629222	0.300113	-0.686527	0.662278						
04715														2.820778	-5.387864	4.252243	0.631270	0.638510	0.440231	-0.705899	0.237909	0.667163	0.321255	-0.731918	0.600908						
04716														2.784444	-4.593244	4.461147	0.641102	0.609281	0.466652	-0.687083	0.184770	0.702693	0.341915	-0.771127	0.537083						
04717														2.762616	-3.809598	4.611345	0.650637	0.581436	0.488470	-0.667928	0.132124	0.732403	0.361307	-0.802792	0.474323						
04718														2.266701	-2.876863	5.040427	0.659581	0.555854	0.505944	-0.650432	0.084763	0.754820	0.376684	-0.826947	0.417453						
04719														2.243734	-2.367667	5.388980	0.665866	0.533432	0.521606	-0.639038	0.046973	0.767739	0.385035	-0.844538	0.372161						
04720														2.776418	-2.344590	5.476741	0.669739	0.516300	0.533744	-0.633721	0.022703	0.773229	0.387101	-0.856107	0.342395						
04721														3.273837	-2.124441	5.570257	0.673739	0.506239	0.538329	-0.630624	0.014133	0.775960	0.385213	-0.862277	0.328768						
04722														3.178732	-2.389942	5.709401	0.679598	0.502925	0.534053	-0.628559	0.023855	0.777396	0.378232	-0.864001	0.332330						
04723														3.025111	-2.521786	5.793455	0.684433	0.506421	0.524490	-0.630320	0.049483	0.774757	0.366400	-0.860865	0.353075						
04724														3.245011	-2.655114	5.245525	0.688441	0.515286	0.510421	-0.636497	0.091820	0.765794	0.347736	-0.852085	0.391191						
04725														3.648380	-3.341500	5.569124	0.688441	0.529062	0.496127	-0.649499	0.145265	0.746357	0.322800	-0.836057	0.443632						
04726														4.259106	-3.533069	6.260675	0.691139	0.546983	0.472374	-0.660968	0.214024	0.719246	0.292316	-0.809323	0.509459						
04727														4.840854	-3.993114	4.814113	0.701547	0.565033	0.434246	-0.664863	0.299644	0.684230	0.256494	-0.768734	0.585883						
04728														4.662946	-4.910597	3.401316	0.712415	0.581345	0.393068	-0.666430	0.384982	0.638483	0.219855	-0.716817	0.661692						
04729														4.397660	-6.174391	3.532089	0.719765	0.597217	0.353935	-0.669736	0.463159	0.580463	0.182734	-0.654840	0.733343						
04730														4.571104	-8.678766	4.501873	0.721679	0.615074	0.317590	-0.677636	0.534018	0.505603	0.141385	-0.580094	0.802186						
04731														5.597099	-12.288853	4.382811	0.724292	0.630992	0.277938	-0.682249	0.597596	0.421207	0.099683	-0.494700	0.863328						
04732														6.328524	-12.748385	3.476928	0.744416	0.628873	0.224419	-0.663942	0.661462	0.348782	0.070895	-0.408640	0.909938						
04733														5.844990	-12.082146	2.691532	0.774858	0.610417	0.164274	-0.630170	0.725434	0.276823	0.049808	-0.318019	0.946775						
04734														4.820716	-13.057607	3.014950	0.802769	0.586342	0.108466	-0.595527	0.779168	0.195563	0.030153	-0.221586	0.974674						
04735														3.682908	-13.467685	3.026636	0.829435	0.555246	0.061153	-0.558422	0.821385	0.116154	0.014264	-0.130492	0.991347						
04736														3.212457	-12.111695	2.456846	0.850010	0.526285	0.022522	-0.526766	0.849293	0.034917	-0.000752	-0.041544	0.999136						
04737														3.467777	-11.408662	1.265629	0.864420	0.502692	-0.008898	-0.502497	0.863231	-0.048268	-0.016583	0.046195	0.998795						
04738														4.138642	-10.755052	0.506767	0.878332	0.476905	-0.033092	-0.477177	0.870437	-0.121000	-0.028901	0.122069	0.992101						
04739														4.359670	-10.109912	0.563486	0.892757	0.447701	-0.050485	-0.448997	0.874835	-0.181839	-0.037244	0.185006	0.982031						
04740														3.758638	-9.690602	0.327378	0.907453	0.416029	-0.058730	-0.417992	0.879757	-0.226517	-0.042570	0.230102	0.972235						
04741														3.572701	-8.991018	0.905202	0.918312	0.391000	-0.061820	-0.393117	0.882426	-0.258425	-0.046493	0.261618	0.964051						
04742														3.203405	-8.377629	1.410090	0.926149	0.371993	-0.062207	-0.373975	0.884374	-0.279331	-0.048895	0.281966	0.958178						
04743														3.122061	-7.691729	1.945314	0.929978	0.362472	-0.061285	-0.364076	0.885055	-0.290044	-0.050892	0.292047	0.955049						
04744														3.158477	-7.339169	2.288110	0.930433	0.361493	-0.060146	-0.362731	0.885110	-0.291559	-0.052161	0.293093	0.954660						
04745														3.032203	-7.462821	2.537371	0.927862	0.368258	-0.058811	-0.369156	0.884631	-0.284872	-0.052880	0.286032	0.956760						
04746														3.056362	-8.218411	2.900497	0.921873	0.383107	-0.058127	-0.383815	0.882179	-0.272848	-0.053251	0.273841	0.960300						
04747														3.315588	-9.562036	3.348713	0.913672	0.402421	-0.057111	-0.403025	0.878766	-0.255620	-0.052680	0.256570	0.965089						
04748														3.631829	-11.429975	4.059304	0.904156	0.423423	-0.056697	-0.424293	0.874597	-0.234637	-0.049764	0.236205	0.970428						
04749														3.326948	-12.022342	3.948063	0.894382	0.443584	-0.057572	-0.445249	0.870543	-0.209542	-0.042831	0.213045	0.976103						
04750														2.360095	-11.302578	2.345592	0.882681	0.466493	-0.057093	-0.468770	0.865211	-0.177946	-0.033613	0.183833	0.982383						
04751														1.170997	-10.823898	0.967090	0.862362	0.503135	-0.056460	-0.505773	0.851051	-0.141090	-0.022937	0.150227	0.988385						
04752														0.767415	-10.905371	0.692216	0.828933	0.556887	-0.052419	-0.559188	0.822807	-0.101471	-0.013377	0.113424	0.993457						
04753														1.695061	-11.769004	1.233779	0.788588	0.613770	-0.037625	-0.614903	0.786596	-0.056223	-0.004913	0.067473	0.997709						
04754														1.871667	-12.815267	1.378973	0.751824	0.659244	-0.012563	-0.659319	0.751859	-0.002577	0.007747	0.010220	0.999918						
04755														2.144686	-13.527674	0.752088	0.718464	0.695263	0.020470	-0.695102	0.716603	0.057570	0.025358	-0.055591	0.998132						
04756														2.822091	-13.737851	0.967386	0.695916	0.715770	0.058089	-0.716420	0.686423	0.124763	0.049427	-0.128441	0.990485						
04757														2.320589	-13.754841	1.745608	0.684922	0.722298	0.095750	-0.724116	0.660204	0.199466	0.080859	-0.205952	0.975216						
04758														1.440543	-12.989035	2.465581	0.678867	0.721943	0.133934	-0.724948	0.630053	0.278359	0.116574	-0.286064	0.951093						
04759														1.013995	-11.714699	2.752348	0.670222	0.721074	0.175654	-0.726462	0.588983	0.354050	0.151839	-0.364898	0.918583						
04760														1.367525	-10.224702	2.827126	0.654931	0.721865	0.223555	-0.732595	0.533921	0.422176	0.185393	-0.440271	0.878516						
04761														2.489258	-8.657799	3.367310	0.635668	0.720711	0.276588	-0.740725	0.468561	0.481432	0.217375	-0.510907	0.831699						
04762														3.282434	-7.166126	3.972476	0.622650	0.711792	0.325053	-0.741375	0.403721	0.536071	0.250340	-0.574771	0.779082						
04763														2.830033	-5.758219	4.071266	0.617371	0.696361	0.365971	-0.733676	0.341818	0.587265	0.283853	-0.631064	0.721932						
04764														2.655539	-4.607258	4.359556	0.613687	0.677920	0.404738	-0.724482	0.279717	0.629987	0.313869	-0.679841	0.662799						
04765														2.461936	-4.067813	4.848227	0.614792	0.656116	0.437656	-0.712243	0.223544	0.665386	0.338735	-0.720791	0.604747						
04766														2.054478	-3.447794	4.707794	0.619804	0.632311	0.464785	-0.697680	0.172832	0.695250	0.359285	-0.755190	0.548273						
04767														2.121391	-2.958486	5.044559	0.622563	0.608821	0.491684	-0.688274	0.126981	0.714251	0.372416	-0.783079	0.498089						
04768														2.652461	-3.028041	6.089851	0.622915	0.586891	0.517239	-0.685527	0.090994	0.722338	0.376868	-0.804536	0.459011						
04769														3.394893	-3.605511	6.696069	0.626902	0.567343	0.533962	-0.684091	0.072859	0.725748	0.372845	-0.820252	0.433790						
04770														3.810458	-4.270524	5.994415	0.638678	0.552104	0.535977	-0.678306	0.075087	0.730932	0.363306	-0.830387	0.422452						
04771														3.525108	-4.175184	4.728778	0.652598	0.542322	0.529153	-0.671023	0.089302	0.736039	0.351916	-0.835411	0.422189						
04772														3.218287	-3.926765	3.945339	0.665729	0.537100	0.518004	-0.665423	0.113181	0.737836	0.337663	-0.835891	0.432746						
04773														3.204452	-3.932493	3.848608	0.675161	0.536237	0.506565	-0.664604	0.144204	0.733149	0.320093	-0.831658	0.453746						
04774														3.785520	-4.314297	5.341627	0.676281	0.540552	0.500447	-0.674235	0.180554	0.716106	0.296735	-0.821708	0.486564						
04775														5.146894	-4.772267	7.154895	0.679157	0.551576	0.484263	-0.683522	0.234847	0.691118	0.267476	-0.800382	0.536513						
04776														5.993272	-5.327095	5.958911	0.692539	0.565118	0.448365	-0.681835	0.309821	0.662656	0.235566	-0.764626	0.599880						
04777														5.525695	-6.023779	5.024559	0.706494	0.580650	0.404613	-0.677284	0.388861	0.624558	0.205312	-0.715284	0.667994						
04778														4.955939	-7.247167	4.984754	0.719656	0.595801	0.356535	-0.672043	0.468649	0.573347	0.174511	-0.652219	0.737670						
04779														4.851293	-9.206883	4.130545	0.733596	0.607001	0.305591	-0.664523	0.546572	0.509576	0.142285	-0.576895	0.804330						
04780														5.064377	-11.116047	2.993239	0.748526	0.612508	0.254054	-0.653320	0.615630	0.440651	0.113499	-0.495817	0.860978						
04781														5.031596	-11.128389	2.617129	0.764378	0.612585	0.201162	-0.637984	0.673440	0.373438	0.093292	-0.413786	0.905582						
04782														3.967099	-10.713735	2.746750	0.783080	0.604010	0.148182	-0.617137	0.725179	0.305382	0.076995	-0.330587	0.940630						
04783														2.985014	-10.965692	3.361434	0.797741	0.594340	0.101829	-0.599990	0.765509	0.232397	0.060172	-0.246489	0.967276						
04784														3.360722	-10.935615	3.430926	0.810832	0.582118	0.060754	-0.583711	0.796697	0.156700	0.042816	-0.162520	0.985776						
04785														3.716786	-10.303054	2.521385	0.826677	0.562151	0.024320	-0.562031	0.822889	0.083517	0.026936	-0.082710	0.996210						
04786														3.740830	-9.815264	1.976726	0.843212	0.537535	-0.007110	-0.537427	0.843212	0.012852	0.012904	-0.007016	0.999892						
04787														3.560572	-9.949608	1.623178	0.859805	0.509583	-0.032574	-0.510623	0.858101	-0.054107	0.000380	0.063155	0.998004						
04788														3.454916	-10.419345	1.310818	0.876011	0.479612	-0.050759	-0.482181	0.868703	-0.113387	-0.010287	0.123803	0.992253						
04789														3.453350	-10.579018	1.058071	0.889749	0.452056	-0.063189	-0.456071	0.874805	-0.163447	-0.018609	0.174245	0.984526						
04790														3.626002	-10.489891	0.842216	0.900575	0.428583	-0.072675	-0.434063	0.877544	-0.203727	-0.023538	0.215017	0.976327						
04791														3.828429	-10.096538	0.765351	0.906708	0.413734	-0.081879	-0.421028	0.876497	-0.233427	-0.024810	0.246123	0.968921						
04792														3.507188	-9.527083	1.319672	0.912555	0.399552	-0.087188	-0.408299	0.878079	-0.249537	-0.023146	0.263315	0.964432						
04793														2.699254	-8.983582	1.587980	0.914034	0.395192	-0.091467	-0.405090	0.877568	-0.256469	-0.021086	0.271473	0.962215						
04794														2.844219	-8.624788	2.228897	0.907610	0.408457	-0.096990	-0.419304	0.870590	-0.257406	-0.020701	0.274292	0.961424						
04795														3.654883	-8.691805	2.947412	0.896644	0.430928	-0.101644	-0.442247	0.860719	-0.252154	-0.021174	0.271043	0.962334						
04796														4.359671	-9.190793	3.082831	0.885714	0.452727	-0.102712	-0.463754	0.852837	-0.240003	-0.021059	0.260207	0.965323						
04797														4.484131	-9.643082	3.046902	0.877157	0.469692	-0.099928	-0.479833	0.849122	-0.220800	-0.018857	0.241625	0.970187						
04798														3.959642	-10.308961	2.976696	0.870377	0.483377	-0.093758	-0.492167	0.848389	-0.194956	-0.014694	0.215830	0.976320						
04799														2.998632	-11.247056	2.787886	0.861370	0.500738	-0.085463	-0.507890	0.845801	-0.163306	-0.009488	0.184072	0.982867						
04800														2.504887	-11.691032	2.415518	0.846131	0.527507	-0.076152	-0.532967	0.836668	-0.126224	-0.002869	0.147388	0.989075						
04801														2.458867	-11.053961	1.653950	0.826487	0.559380	-0.063341	-0.562924	0.822371	-0.082599	0.005885	0.103923	0.994568						
04802														2.290120	-10.718694	1.252664	0.802437	0.594969	-0.045910	-0.596472	0.801996	-0.031983	0.017790	0.053048	0.998433						
04803														1.843039	-11.063374	1.733106	0.771829	0.635404	-0.023274	-0.634995	0.772174	0.023002	0.032587	-0.002974	0.999464						
04804														1.480891	-11.874703	2.491537	0.735855	0.677106	0.006712	-0.675354	0.733158	0.079850	0.049146	-0.063291	0.996784						
04805														1.715540	-12.207648	2.702349	0.698234	0.714480	0.044577	-0.712665	0.687875	0.137610	0.067656	-0.127852	0.989483						
04806														2.433596	-11.879546	2.611482	0.667580	0.739247	0.088607	-0.739202	0.643863	0.197535	0.088976	-0.197369	0.976283						
04807														2.436195	-11.707608	2.556304	0.646257	0.751030	0.135296	-0.754378	0.601976	0.261800	0.115175	-0.271254	0.955592						
04808														1.971646	-11.522658	3.393885	0.626229	0.757349	0.185096	-0.766309	0.554208	0.324998	0.143555	-0.345363	0.927424						
04809														1.899694	-11.673825	4.322794	0.611098	0.755043	0.237632	-0.772957	0.504522	0.384701	0.170575	-0.418769	0.891928						
04810														2.128838	-11.116383	4.323009	0.601373	0.744529	0.289874	-0.774407	0.453901	0.440759	0.196583	-0.489541	0.849532						
04811														2.767163	-9.838159	4.165658	0.597902	0.726824	0.337994	-0.770230	0.404201	0.493322	0.221941	-0.555292	0.801494						
04812														2.864838	-8.578724	3.943383	0.603236	0.702874	0.376927	-0.757549	0.357134	0.546420	0.249451	-0.615161	0.747898						
04813														2.647507	-7.317374	3.866677	0.611694	0.676868	0.409489	-0.740817	0.308519	0.596663	0.277527	-0.668331	0.690154						
04814														2.514386	-6.322482	3.966456	0.621162	0.650403	0.437189	-0.721628	0.257136	0.642755	0.305632	-0.714743	0.629072						
04815														2.369372	-4.837937	4.712036	0.631782	0.624812	0.458761	-0.699799	0.205220	0.684226	0.333366	-0.753322	0.566897						
04816														2.022919	-3.542867	5.033814	0.643322	0.601388	0.473781	-0.677416	0.158801	0.718255	0.356713	-0.783016	0.509550						
04817														1.735657	-2.991056	5.024997	0.652185	0.582255	0.485420	-0.659842	0.120801	0.741631	0.373179	-0.803981	0.462981						
04818														1.655451	-2.506528	4.908580	0.657583	0.567209	0.495841	-0.648950	0.092143	0.755231	0.382686	-0.818403	0.428682						
04819														2.025111	-2.400189	4.790103	0.660641	0.555932	0.504472	-0.644947	0.076410	0.760398	0.384183	-0.827708	0.409026						
04820														2.619563	-2.758712	4.964311	0.663430	0.549230	0.508141	-0.644818	0.075167	0.760631	0.379566	-0.832284	0.404021						
04821														2.879334	-2.871880	5.256133	0.668274	0.547576	0.503558	-0.644854	0.088899	0.759118	0.370909	-0.832020	0.412515						
04822														2.814455	-3.200433	5.392648	0.673225	0.550544	0.493629	-0.648207	0.118179	0.752238	0.355804	-0.826399	0.436428						
04823														3.107480	-4.338158	5.857038	0.673303	0.557875	0.485220	-0.660420	0.158719	0.733930	0.332428	-0.814607	0.475298						
04824														4.551601	-5.781469	6.990976	0.670322	0.569657	0.475562	-0.677473	0.208268	0.705446	0.302818	-0.795057	0.525534						
04825														5.931204	-6.572064	7.223183	0.676926	0.583152	0.449115	-0.683181	0.270709	0.678219	0.273925	-0.765931	0.581649						
04826														5.835526	-6.455653	5.951992	0.694178	0.594296	0.406114	-0.675315	0.342442	0.653210	0.249130	-0.727699	0.639053						
04827														5.008361	-6.260177	5.388105	0.711507	0.604448	0.358329	-0.665212	0.415117	0.620621	0.226385	-0.679941	0.697445						
04828														4.500922	-6.871368	5.163637	0.724154	0.615162	0.311732	-0.660078	0.487343	0.571659	0.199742	-0.619736	0.758966						
04829														4.751471	-8.537790	4.385924	0.731015	0.627445	0.268198	-0.661197	0.554205	0.505643	0.168627	-0.546964	0.819997						
04830														5.466272	-9.685867	3.642535	0.737114	0.637526	0.224106	-0.661451	0.612766	0.432435	0.138364	-0.466989	0.873371						
04831														5.849257	-9.914578	3.544067	0.747841	0.640416	0.174933	-0.654222	0.666140	0.358122	0.112818	-0.382263	0.917141						
04832														5.206202	-10.422720	3.692536	0.766554	0.630444	0.122215	-0.635876	0.718555	0.281673	0.089760	-0.293631	0.951695						
04833														3.926447	-10.985620	3.120503	0.791000	0.607417	0.073234	-0.607968	0.766969	0.205265	0.068513	-0.206888	0.975963						
04834														3.340881	-10.475457	2.123276	0.814837	0.578620	0.035220	-0.577764	0.805680	0.130647	0.047219	-0.126805	0.990803						
04835														3.463618	-10.029211	1.386193	0.832120	0.554565	0.005859	-0.553946	0.830586	0.057200	0.026854	-0.050843	0.998346						
04836														3.275753	-9.983738	1.286726	0.842407	0.538457	-0.020377	-0.538753	0.842352	-0.013727	0.009774	0.022542	0.999698						
04837														3.121210	-10.128152	1.607758	0.848766	0.527066	-0.042396	-0.528737	0.845109	-0.078924	-0.005769	0.089404	0.995979						
04838														3.209186	-10.084672	1.766834	0.856408	0.513014	-0.058158	-0.515915	0.845970	-0.134784	-0.019946	0.145435	0.989167						
04839														3.218811	-9.870985	1.233636	0.862072	0.501819	-0.070779	-0.505819	0.843370	-0.181314	-0.031295	0.192107	0.980875						
04840														3.719544	-9.619366	0.961662	0.865219	0.494849	-0.080751	-0.499792	0.838333	-0.217730	-0.040047	0.228743	0.972663						
04841														4.558067	-9.446238	1.253029	0.870180	0.485347	-0.084999	-0.490524	0.836968	-0.242634	-0.046620	0.252830	0.966387						
04842														4.304238	-9.295431	1.466148	0.877818	0.471498	-0.084410	-0.476452	0.841363	-0.255151	-0.049284	0.264194	0.963210						
04843														3.603414	-8.903402	1.293353	0.884194	0.460115	-0.080590	-0.464499	0.847802	-0.255874	-0.049407	0.263676	0.963345						
04844														3.189878	-8.635525	1.421667	0.886970	0.455735	-0.074762	-0.459214	0.853126	-0.247584	-0.049051	0.253932	0.965978						
04845														3.160785	-8.647430	1.576176	0.885267	0.460021	-0.068434	-0.462547	0.855508	-0.232713	-0.048507	0.237667	0.970135						
04846														3.385758	-8.891995	1.949416	0.880219	0.470574	-0.061443	-0.472281	0.855907	-0.210652	-0.046538	0.214438	0.975628						
04847														3.370476	-9.703922	2.458431	0.873017	0.484619	-0.054635	-0.485890	0.854709	-0.182712	-0.041849	0.186058	0.981647						
04848														3.060632	-10.880710	3.101179	0.862115	0.504346	-0.048915	-0.505501	0.849364	-0.151822	-0.035024	0.155615	0.987197						
04849														2.636257	-11.981272	3.253163	0.847219	0.529471	-0.043360	-0.530590	0.839304	-0.118506	-0.026353	0.123407	0.992006						
04850														2.277049	-12.025035	2.163087	0.829172	0.557805	-0.036438	-0.558803	0.825425	-0.080080	-0.014592	0.086761	0.996122						
04851														2.143988	-11.487198	1.047842	0.804678	0.593037	-0.028298	-0.593710	0.803870	-0.036070	0.001358	0.045826	0.998949						
04852														2.069645	-11.188379	1.202238	0.773193	0.633962	-0.016249	-0.633835	0.773364	0.012715	0.020627	0.000468	0.999787						
04853														1.815655	-11.438192	2.102500	0.734643	0.678452	0.001858	-0.677105	0.733006	0.065054	0.042774	-0.049049	0.997880						
04854														1.685526	-11.827839	2.814408	0.691732	0.721602	0.028232	-0.719170	0.684796	0.117687	0.065590	-0.101712	0.992649						
04855														2.252100	-11.850976	2.752156	0.650399	0.757022	0.062439	-0.754326	0.634041	0.170248	0.089292	-0.157829	0.983421						
04856														2.700052	-11.631759	2.698135	0.616305	0.780936	0.101530	-0.778902	0.585474	0.224792	0.116105	-0.217622	0.969103						
04857														2.410969	-11.525934	3.336939	0.590775	0.793958	0.143582	-0.793360	0.539247	0.282474	0.146846	-0.280791	0.948469						
04858														1.937902	-11.280527	4.292443	0.573766	0.797117	0.188140	-0.799521	0.495302	0.339768	0.177649	-0.345369	0.921499						
04859														1.795811	-10.871114	4.246610	0.563433	0.792178	0.234516	-0.799836	0.451954	0.394968	0.206895	-0.410112	0.888258						
04860														2.229497	-10.071344	3.782752	0.556340	0.781834	0.281463	-0.796704	0.405631	0.448025	0.236111	-0.473496	0.848559						
04861														2.914412	-9.035100	3.994720	0.553572	0.766470	0.325703	-0.788925	0.357370	0.499883	0.266749	-0.533676	0.802518						
04862														3.054160	-7.773680	4.498053	0.559356	0.745136	0.363171	-0.773447	0.311569	0.552001	0.298163	-0.589658	0.750601						
04863														2.701669	-6.822623	4.509089	0.570609	0.720606	0.393869	-0.752798	0.267315	0.601530	0.328180	-0.639742	0.695003						
04864														2.350684	-5.673874	4.348600	0.579752	0.696054	0.423552	-0.733403	0.219323	0.643442	0.354975	-0.683671	0.637641						
04865														2.280014	-4.537268	4.639765	0.588269	0.669538	0.453496	-0.716015	0.170614	0.676914	0.375847	-0.722918	0.579766						
04866														2.483949	-4.213900	4.962721	0.594910	0.643173	0.482090	-0.701832	0.123288	0.701593	0.391810	-0.755730	0.524745						
04867														2.780732	-3.560419	5.419105	0.601690	0.618710	0.505141	-0.687977	0.080158	0.721292	0.405780	-0.781519	0.473889						
04868														2.882155	-2.892390	5.333915	0.610960	0.596583	0.520401	-0.674702	0.048516	0.736494	0.414132	-0.801084	0.432157						
04869														3.092110	-2.936095	5.299432	0.617872	0.578599	0.532406	-0.667179	0.027505	0.744389	0.416059	-0.815148	0.403024						
04870														3.319627	-3.190766	5.896870	0.623404	0.565341	0.540145	-0.664423	0.018840	0.747119	0.412201	-0.824642	0.387370						
04871														3.552840	-3.526956	6.295106	0.631487	0.557177	0.539239	-0.663233	0.027871	0.747894	0.401680	-0.829926	0.387138						
04872														3.650894	-3.382214	5.853342	0.640282	0.555148	0.530896	-0.664451	0.053495	0.745415	0.385415	-0.830030	0.403120						
04873														3.610994	-3.548427	5.083203	0.648941	0.557818	0.517413	-0.668386	0.093055	0.737970	0.363505	-0.824730	0.433225						
04874														3.611201	-4.093768	5.694469	0.654191	0.563598	0.504373	-0.677743	0.140835	0.721686	0.335707	-0.813955	0.474107						
04875														4.446727	-4.445068	7.153468	0.657296	0.573975	0.488380	-0.691199	0.200870	0.694187	0.300345	-0.793854	0.528762						
04876														5.705396	-5.326759	7.012912	0.667636	0.587932	0.456726	-0.698022	0.280997	0.658639	0.258896	-0.758536	0.597993						
04877														6.392858	-6.166564	5.324382	0.683639	0.602743	0.411507	-0.696139	0.369233	0.615676	0.219153	-0.707367	0.672015						
04878														5.867981	-6.519503	3.877350	0.701228	0.614862	0.360865	-0.688409	0.452328	0.567004	0.185400	-0.646022	0.740461						
04879														4.996194	-6.896210	3.296937	0.719537	0.621908	0.309027	-0.676721	0.527995	0.513099	0.155935	-0.578318	0.800770						
04880														4.075866	-8.833130	3.156183	0.732819	0.627317	0.263534	-0.668734	0.592529	0.449116	0.125586	-0.505355	0.853724						
04881														3.713042	-10.545890	3.800180	0.740823	0.632907	0.224969	-0.664759	0.642795	0.380670	0.096320	-0.431559	0.896928						
04882														4.262596	-10.356196	4.165046	0.748819	0.635709	0.187469	-0.659217	0.685118	0.309913	0.068576	-0.355651	0.932099						
04883														4.613542	-10.559951	3.629041	0.762743	0.629825	0.146775	-0.645194	0.725621	0.239163	0.044128	-0.277118	0.959822						
04884														4.093245	-10.204301	2.825150	0.784190	0.611611	0.104775	-0.619917	0.764737	0.175728	0.027352	-0.202756	0.978847						
04885														3.270425	-9.711067	2.562027	0.806285	0.587694	0.067224	-0.591384	0.798378	0.113392	0.012969	-0.131182	0.991273						
04886														2.980401	-9.798237	2.460018	0.826757	0.561331	0.037160	-0.562553	0.825256	0.049867	-0.002675	-0.062132	0.998064						
04887														3.146875	-9.715001	2.081810	0.844868	0.534794	0.013915	-0.534698	0.844982	-0.010206	-0.017216	0.001182	0.999851						
04888														3.797354	-9.770838	1.868094	0.862763	0.505586	-0.004640	-0.504767	0.860763	-0.065551	-0.029148	0.058897	0.997838						
04889														3.895741	-10.046949	1.520319	0.881877	0.471097	-0.018997	-0.470007	0.875225	-0.114342	-0.037239	0.109764	0.993260						
04890														3.758974	-10.143113	1.191323	0.899784	0.435352	-0.029281	-0.434300	0.887093	-0.156365	-0.042099	0.153412	0.987265						
04891														3.681962	-10.132210	0.950149	0.914676	0.402583	-0.035985	-0.401690	0.895529	-0.191505	-0.044871	0.189620	0.980832						
04892														3.672476	-9.732062	0.715537	0.925649	0.376246	-0.040172	-0.375567	0.900635	-0.218645	-0.046084	0.217476	0.974977						
04893														3.446765	-9.556165	0.718250	0.932530	0.358473	-0.043414	-0.358139	0.902850	-0.237904	-0.046086	0.237401	0.970318						
04894														3.185176	-9.449975	0.827947	0.935377	0.350582	-0.046509	-0.350728	0.902700	-0.249245	-0.045397	0.249450	0.967323						
04895														3.215842	-9.509971	1.074685	0.934534	0.352458	-0.049183	-0.352987	0.900500	-0.253969	-0.045225	0.254704	0.965961						
04896														3.456369	-9.507827	1.171598	0.931758	0.359525	-0.050686	-0.360283	0.898234	-0.251736	-0.044977	0.252818	0.966468						
04897														3.504129	-9.690423	1.140471	0.928188	0.368646	-0.050658	-0.369504	0.897022	-0.242526	-0.043965	0.243828	0.968821						
04898														3.380452	-9.955416	0.877062	0.924261	0.378633	-0.048763	-0.379464	0.897187	-0.225972	-0.041811	0.227361	0.972913						
04899														3.353158	-9.856696	0.710828	0.919041	0.391497	-0.045756	-0.392309	0.897292	-0.202386	-0.038177	0.203951	0.978236						
04900														3.467104	-9.674008	0.969701	0.912015	0.407946	-0.042536	-0.408857	0.895971	-0.173411	-0.032631	0.175545	0.983931						
04901														3.336812	-9.552420	1.645550	0.902952	0.427933	-0.039372	-0.429012	0.892295	-0.140565	-0.025021	0.143815	0.989288						
04902														3.330900	-9.111732	2.198914	0.890349	0.453795	-0.036714	-0.454997	0.884072	-0.106740	-0.015980	0.111741	0.993609						
04903														3.747268	-8.761279	2.235637	0.873611	0.485484	-0.033322	-0.486594	0.870728	-0.071121	-0.005514	0.078347	0.996911						
04904														3.891918	-8.843492	2.538543	0.855557	0.517021	-0.026673	-0.517679	0.854928	-0.033272	0.005601	0.042274	0.999090						
04905														3.374910	-10.282980	3.380680	0.834712	0.550426	-0.016954	-0.550438	0.834864	0.004356	0.016552	0.005696	0.999847						
04906														2.544325	-11.913367	4.280012	0.810446	0.585800	-0.003870	-0.585251	0.809940	0.038452	0.025660	-0.028899	0.999253						
04907														2.390981	-12.113350	3.309690	0.793254	0.608771	0.012115	-0.607750	0.790392	0.076943	0.037265	-0.068398	0.996962						
04908														2.049345	-11.234554	0.724532	0.782390	0.622139	0.028438	-0.620151	0.774065	0.127420	0.057261	-0.117328	0.991441						
04909														0.970341	-10.367052	0.631173	0.762201	0.645619	0.047183	-0.642107	0.744777	0.181677	0.082153	-0.168771	0.982226						
04910														0.341842	-10.418658	2.542031	0.730124	0.679124	0.075566	-0.675395	0.700446	0.230687	0.103735	-0.219467	0.970089						
04911														1.288736	-11.588226	3.871571	0.688055	0.716146	0.117109	-0.716062	0.643897	0.269541	0.117625	-0.269317	0.955842						
04912														2.805783	-12.704326	4.971084	0.644246	0.746598	0.165945	-0.753628	0.582717	0.304116	0.130354	-0.320986	0.938070						
04913														3.937778	-12.480066	4.840613	0.614237	0.760647	0.210071	-0.774638	0.530435	0.344348	0.150498	-0.374240	0.915038						
04914														3.872004	-11.253363	3.655109	0.605571	0.757341	0.244373	-0.775303	0.492241	0.395732	0.179414	-0.429107	0.885256						
04915														2.600099	-10.001331	3.090625	0.607934	0.745469	0.273300	-0.764899	0.457555	0.453402	0.212947	-0.484685	0.848371						
04916														1.620548	-8.928768	3.577990	0.606592	0.733607	0.306379	-0.756187	0.413441	0.507196	0.245413	-0.539341	0.805533						
04917														1.984690	-7.818775	3.761900	0.599383	0.722034	0.345553	-0.751268	0.358423	0.554193	0.276292	-0.591777	0.757274						
04918														2.822457	-6.619101	3.971086	0.591487	0.708039	0.385777	-0.745997	0.298972	0.595067	0.305994	-0.639763	0.705033						
04919														2.884818	-5.577745	4.648018	0.588355	0.689597	0.422249	-0.737146	0.242794	0.630608	0.332345	-0.682281	0.651183						
04920														2.954851	-4.921390	5.325886	0.586625	0.669224	0.456081	-0.728388	0.189819	0.658346	0.354008	-0.718407	0.598807						
04921														3.698171	-4.600442	5.844607	0.587265	0.648537	0.484273	-0.718792	0.142820	0.680397	0.372099	-0.747665	0.550036						
04922														3.810058	-4.250604	6.169692	0.593593	0.628634	0.502461	-0.705272	0.105639	0.701022	0.387606	-0.770494	0.506064						
04923														3.658208	-3.859395	6.084530	0.603896	0.611537	0.511207	-0.689568	0.079178	0.719879	0.399757	-0.787244	0.469512						
04924														3.309469	-3.758074	5.881582	0.614488	0.597850	0.514762	-0.675406	0.061454	0.734881	0.407714	-0.799249	0.441554						
04925														3.464390	-3.207082	5.835450	0.622755	0.587884	0.516303	-0.664412	0.048860	0.745768	0.413198	-0.807468	0.421025						
04926														3.963536	-2.641593	5.916892	0.626811	0.583561	0.516298	-0.658938	0.043386	0.750945	0.415822	-0.810910	0.411725						
04927														4.211171	-2.697470	5.865679	0.628734	0.585123	0.512176	-0.656640	0.046669	0.752759	0.416554	-0.809600	0.413558						
04928														4.278013	-2.502879	5.647775	0.627615	0.592246	0.505316	-0.657459	0.055581	0.751437	0.416949	-0.803838	0.424261						
04929														3.994279	-2.335751	5.668212	0.623670	0.603070	0.497335	-0.663177	0.071410	0.745048	0.413802	-0.794485	0.444479						
04930														3.623530	-2.947838	6.055529	0.616740	0.616463	0.489495	-0.674396	0.093084	0.732479	0.405982	-0.781863	0.473149						
04931														3.702092	-3.539604	6.473157	0.610281	0.631630	0.478122	-0.687067	0.121594	0.716348	0.394330	-0.765675	0.508178						
04932														3.904726	-3.844008	6.597315	0.607087	0.647549	0.460571	-0.698158	0.157846	0.698327	0.379502	-0.745496	0.547917						
04933														3.835789	-4.138176	6.641747	0.607090	0.663748	0.436898	-0.707763	0.201696	0.677046	0.361267	-0.720248	0.592224						
04934														3.704688	-4.585353	6.602361	0.609251	0.679223	0.409230	-0.716755	0.250922	0.650616	0.339229	-0.689706	0.639710						
04935														3.647732	-4.697547	6.534612	0.613979	0.692447	0.378877	-0.724195	0.303256	0.619336	0.313961	-0.654640	0.687659						
04936														3.852114	-5.048644	6.338159	0.620388	0.703613	0.346478	-0.731130	0.358959	0.580171	0.283844	-0.613251	0.737126						
04937														4.179531	-6.256564	5.994003	0.630868	0.711036	0.310538	-0.734437	0.418176	0.534538	0.250216	-0.565293	0.786025						
04938														3.989067	-7.710202	5.835754	0.646168	0.712926	0.272404	-0.731979	0.477880	0.485631	0.216043	-0.513193	0.830637						
04939														4.251334	-8.769854	6.021978	0.663115	0.711147	0.233556	-0.726375	0.536040	0.430163	0.180714	-0.454897	0.872016						
04940														5.099261	-9.177949	5.095802	0.689973	0.699243	0.187074	-0.708803	0.600291	0.370472	0.146751	-0.388214	0.909810						
04941														5.056426	-9.872323	3.490232	0.725436	0.674828	0.135461	-0.677964	0.666616	0.309819	0.118774	-0.316592	0.941096						
04942														3.565914	-10.888176	2.646628	0.764063	0.639336	0.086353	-0.638066	0.729114	0.247518	0.095287	-0.244218	0.965027						
04943														1.535684	-11.954780	1.342647	0.798921	0.599499	0.048224	-0.597257	0.781380	0.180911	0.070775	-0.173336	0.982316						
04944														1.666216	-12.887766	-0.306366	0.821117	0.570318	0.022454	-0.569053	0.814986	0.109437	0.044115	-0.102638	0.993740						
04945														3.502331	-13.675204	-0.841017	0.833836	0.552012	-0.000374	-0.551562	0.833183	0.039820	0.022293	-0.032997	0.999207						
04946														4.101851	-12.925482	-0.539858	0.849255	0.527446	-0.023797	-0.527897	0.849066	-0.020306	0.009495	0.029807	0.999511						
04947														3.035931	-11.728731	-0.824045	0.867038	0.496483	-0.041832	-0.498238	0.864287	-0.069039	0.001878	0.080702	0.996737						
04948														2.537794	-10.483390	-0.768637	0.878455	0.474667	-0.054851	-0.477798	0.871365	-0.111500	-0.005131	0.124155	0.992250						
04949														2.551498	-9.811913	-0.124129	0.883951	0.463030	-0.065072	-0.467403	0.871181	-0.150261	-0.012886	0.163238	0.986503						
04950														2.746257	-9.190812	0.489752	0.888054	0.453938	-0.072805	-0.459323	0.869322	-0.182487	-0.019547	0.195499	0.980509						
04951														2.996568	-8.741848	0.840471	0.893608	0.442267	-0.076581	-0.448120	0.869363	-0.208318	-0.025556	0.220472	0.975059						
04952														3.061130	-8.456046	1.273329	0.900972	0.427109	-0.076341	-0.432739	0.871847	-0.229389	-0.031416	0.239709	0.970336						
04953														3.558675	-8.325786	1.745618	0.911078	0.406117	-0.070752	-0.410449	0.877720	-0.247265	-0.038317	0.254318	0.966361						
04954														3.592971	-8.498562	1.846348	0.925610	0.373671	-0.060125	-0.375994	0.889690	-0.259000	-0.043289	0.262340	0.964004						
04955														2.784603	-8.332957	1.376111	0.938008	0.342882	-0.050716	-0.343534	0.900215	-0.267575	-0.046092	0.268411	0.962201						
04956														2.562068	-8.491231	1.048378	0.945840	0.321765	-0.043053	-0.320878	0.906530	-0.274300	-0.049232	0.273259	0.960680						
04957														2.775683	-8.889235	0.694369	0.948643	0.313903	-0.039266	-0.312160	0.908710	-0.277131	-0.051311	0.275155	0.960030						
04958														2.900683	-9.382503	0.234499	0.947696	0.316762	-0.039172	-0.315083	0.908883	-0.273229	-0.050945	0.271281	0.961151						
04959														2.857778	-9.658921	-0.053162	0.943272	0.329462	-0.041135	-0.328390	0.907503	-0.261915	-0.048961	0.260565	0.964214						
04960														3.166298	-9.637547	-0.008096	0.935994	0.349353	-0.043222	-0.349032	0.905083	-0.242902	-0.045739	0.242441	0.969087						
04961														3.287197	-9.418356	0.588581	0.926168	0.374436	-0.044829	-0.374890	0.901305	-0.217040	-0.040863	0.217822	0.975133						
04962														3.340712	-9.092282	1.343679	0.914575	0.401965	-0.044465	-0.402910	0.896160	-0.185908	-0.034881	0.187942	0.981561						
04963														3.589676	-9.087761	2.095909	0.902371	0.428996	-0.041095	-0.430038	0.890103	-0.150945	-0.028177	0.153881	0.987688						
04964														3.391836	-9.618853	2.157020	0.891046	0.452468	-0.036181	-0.453541	0.884258	-0.111308	-0.018370	0.115591	0.993127						
04965														3.015854	-9.988308	1.787622	0.880212	0.473687	-0.029112	-0.474534	0.877607	-0.067998	-0.006661	0.073667	0.997261						
04966														3.184905	-10.563168	1.469694	0.869533	0.493531	-0.018404	-0.493835	0.869330	-0.019800	0.006228	0.026305	0.999635						
04967														2.698102	-11.147549	1.453889	0.855230	0.518200	-0.007098	-0.517752	0.854931	0.032031	0.022667	-0.023719	0.999462						
04968														2.376203	-12.551942	2.059776	0.830869	0.556422	0.007177	-0.555024	0.827715	0.082676	0.040063	-0.072676	0.996551						
04969														2.877973	-13.400443	2.696265	0.798422	0.601505	0.026718	-0.599310	0.789676	0.131299	0.057878	-0.120844	0.990983						
04970														3.520461	-12.840295	1.919832	0.769764	0.636317	0.050644	-0.633298	0.751347	0.185505	0.079989	-0.174867	0.981338						
04971														2.937487	-11.865130	1.219781	0.744441	0.663232	0.077008	-0.658707	0.710673	0.247080	0.109143	-0.234662	0.965930						
04972														2.159562	-10.790806	2.264477	0.713688	0.691705	0.110425	-0.686344	0.659064	0.307518	0.139935	-0.295262	0.945113						
04973														2.334755	-9.864480	3.587261	0.680321	0.716734	0.153151	-0.713037	0.598924	0.364511	0.169532	-0.357186	0.918519						
04974														3.078072	-8.891026	4.382594	0.646616	0.735576	0.202028	-0.736918	0.533935	0.414566	0.197075	-0.416943	0.887311						
04975														3.482325	-8.719710	4.768402	0.621220	0.741913	0.252290	-0.751574	0.472932	0.459861	0.221861	-0.475290	0.851397						
04976														3.384414	-8.566401	5.822874	0.602742	0.737226	0.305285	-0.759609	0.412987	0.502430	0.244326	-0.534733	0.808929						
04977														4.009218	-7.916314	6.681810	0.595493	0.721269	0.353778	-0.758310	0.359266	0.543961	0.265242	-0.592199	0.760886						
04978														3.857029	-7.445524	6.233778	0.600704	0.695899	0.393547	-0.747660	0.314668	0.584797	0.283123	-0.645529	0.709319						
04979														3.521119	-6.890639	5.778914	0.609914	0.667129	0.427719	-0.733742	0.271501	0.622824	0.299378	-0.693705	0.655093						
04980														3.360164	-6.135369	5.708245	0.620538	0.637035	0.457295	-0.718533	0.228341	0.656941	0.314075	-0.736238	0.599425						
04981														3.270078	-5.450124	5.388272	0.632701	0.606506	0.481497	-0.701616	0.185801	0.687905	0.327756	-0.773064	0.543091						
04982														3.119197	-4.294905	4.815400	0.646036	0.577186	0.499494	-0.682448	0.143644	0.716680	0.341908	-0.803880	0.486698						
04983														2.717144	-2.774672	4.695470	0.657063	0.551828	0.513570	-0.665059	0.103591	0.739571	0.354915	-0.827499	0.435064						
04984														2.306274	-2.188886	5.066058	0.662290	0.532724	0.526856	-0.655275	0.070873	0.752058	0.363300	-0.843316	0.396019						
04985														2.210407	-2.695752	5.429313	0.662511	0.517610	0.541442	-0.653671	0.046538	0.755346	0.365778	-0.854350	0.369179						
04986														2.830906	-2.762291	5.793157	0.661651	0.505517	0.553778	-0.654949	0.030077	0.755074	0.365047	-0.862292	0.350988						
04987														3.207696	-2.566413	5.833352	0.663379	0.497609	0.558850	-0.655865	0.027122	0.754391	0.360235	-0.866977	0.344356						
04988														3.154543	-2.670081	6.046149	0.665248	0.496806	0.557341	-0.658458	0.038490	0.751632	0.351963	-0.867008	0.352732						
04989														3.173274	-3.024680	6.169613	0.667118	0.503826	0.548738	-0.662334	0.063986	0.746472	0.340980	-0.861432	0.376387						
04990														3.363113	-3.161802	6.120690	0.670154	0.516944	0.532600	-0.665288	0.100229	0.739828	0.329068	-0.850131	0.411086						
04991														3.440366	-2.622808	5.995010	0.674837	0.534232	0.509109	-0.667665	0.148121	0.729577	0.314354	-0.832260	0.456645						
04992														3.377933	-2.385144	6.032858	0.679145	0.555210	0.480109	-0.672196	0.207737	0.710632	0.294813	-0.805349	0.514293						
04993														3.204564	-3.336873	6.438784	0.676864	0.581816	0.450939	-0.685112	0.273881	0.674990	0.269216	-0.765820	0.583989						
04994														3.593708	-6.217096	6.827797	0.670720	0.613010	0.417557	-0.702220	0.343575	0.623574	0.238795	-0.711460	0.660910						
04995														4.281877	-8.032251	6.125361	0.674935	0.637836	0.370984	-0.707679	0.417187	0.570214	0.208933	-0.647395	0.732957						
04996														4.769708	-8.080311	5.514652	0.681158	0.657822	0.321392	-0.710137	0.486827	0.508631	0.178126	-0.574691	0.798750						
04997														4.900780	-9.517035	5.529594	0.690149	0.671610	0.269508	-0.709573	0.554883	0.434295	0.142131	-0.490963	0.859508						
04998														4.850355	-11.421982	4.229719	0.709709	0.670936	0.214844	-0.696665	0.623048	0.355625	0.104743	-0.402065	0.909600						
04999														4.898045	-12.592560	1.838456	0.739476	0.653472	0.161711	-0.669206	0.687507	0.281954	0.073071	-0.316716	0.945702						
05000														4.735354	-12.242300	0.753312	0.772440	0.624478	0.115598	-0.633307	0.743785	0.213789	0.047527	-0.238348	0.970016						
