// General information: 
//  MT Manager version: 2022.2.0 
//  XDA version: 2022.2.0 build 7381 rev 124627 built on 2023-07-19
// Device information: 
//  DeviceId: 00B4D4A8
//  ProductCode: MTW2-3A7G6
//  Firmware Version: 4.6.0
//  Hardware Version: 2.0.0
// Device settings: 
//  Filter Profile: human(46.1)
//  Option Flags: Orientation Smoother Disabled, Position/Velocity Smoother Disabled, Continuous Zero Rotation Update Disabled, AHS Disabled, ICC Disabled
// Coordinate system: ENU
PacketCounter	SampleTimeFine	Year	Month	Day	Second	UTC_Nano	UTC_Year	UTC_Month	UTC_Day	UTC_Hour	UTC_Minute	UTC_Second	UTC_Valid	Acc_X	Acc_Y	Acc_Z	Mat[1][1]	Mat[2][1]	Mat[3][1]	Mat[1][2]	Mat[2][2]	Mat[3][2]	Mat[1][3]	Mat[2][3]	Mat[3][3]	Latitude	Longitude	Altitude	Vel_E	Vel_N	Vel_U
04221														-2.140987	9.818405	0.377631	0.992007	-0.074572	0.101786	0.079782	0.995651	-0.048107	-0.097756	0.055843	0.993642						
04222														-1.380707	9.832084	0.525767	0.991624	-0.073621	0.106122	0.078228	0.996136	-0.039916	-0.102773	0.047884	0.993552						
04223														-2.049510	9.720540	0.614324	0.992401	-0.063344	0.105491	0.066651	0.997380	-0.028121	-0.103433	0.034939	0.994023						
04224														-2.436508	9.804460	0.655435	0.993081	-0.059324	0.101345	0.061531	0.997928	-0.018786	-0.100020	0.024892	0.994674						
04225														-1.256913	9.702739	0.455533	0.993481	-0.059008	0.097534	0.060570	0.998078	-0.013120	-0.096572	0.018942	0.995146						
04226														-1.273882	9.634843	0.528088	0.994230	-0.052496	0.093544	0.053217	0.998569	-0.005229	-0.093135	0.010177	0.995601						
04227														-2.114941	9.794057	0.488823	0.994425	-0.058289	0.087876	0.058685	0.998275	-0.001933	-0.087611	0.007079	0.996130						
04228														-1.264165	9.705920	0.042098	0.993871	-0.074686	0.081506	0.075350	0.997144	-0.005098	-0.080893	0.011208	0.996660						
04229														-0.976637	9.833307	-0.424937	0.993189	-0.089482	0.074619	0.090504	0.995842	-0.010421	-0.073376	0.017103	0.997158						
04230														-1.123107	9.791291	-0.330853	0.993602	-0.092012	0.065488	0.092988	0.995595	-0.012001	-0.064096	0.018014	0.997781						
04231														-3.253492	9.943744	0.019925	0.994802	-0.089612	0.048353	0.090364	0.995816	-0.013593	-0.046933	0.017891	0.998738						
04232														-3.114703	9.903996	-0.218284	0.994744	-0.098586	0.027654	0.099299	0.994725	-0.025715	-0.024973	0.028326	0.999287						
04233														-1.519201	8.788651	-0.734827	0.993986	-0.108054	0.017805	0.108618	0.993481	-0.034592	-0.013951	0.036318	0.999243						
04234														-1.923169	9.180794	-0.409720	0.994476	-0.103476	0.017626	0.103968	0.994136	-0.029753	-0.014444	0.031421	0.999402						
04235														-3.737261	9.674378	-0.131136	0.994070	-0.106882	0.020029	0.107397	0.993858	-0.026679	-0.017055	0.028672	0.999443						
04236														-2.685099	9.667836	-0.120700	0.992405	-0.120988	0.022245	0.121595	0.992176	-0.028308	-0.018646	0.030798	0.999352						
04237														-1.670820	9.289851	0.348823	0.991996	-0.123929	0.024213	0.124468	0.991976	-0.022152	-0.021274	0.024988	0.999461						
04238														-2.365419	9.483856	0.705191	0.991973	-0.123756	0.025965	0.124116	0.992186	-0.012736	-0.024186	0.015856	0.999582						
04239														-1.720846	9.854258	0.468940	0.991844	-0.124324	0.028108	0.124573	0.992184	-0.007290	-0.026982	0.010732	0.999578						
04240														-1.610410	9.689090	0.051392	0.991841	-0.123702	0.030798	0.123934	0.992274	-0.005715	-0.029853	0.009485	0.999509						
04241														-1.355846	9.404630	-0.466875	0.991933	-0.122025	0.034338	0.122204	0.992500	-0.003160	-0.033694	0.007331	0.999405						
04242														-1.815796	9.575309	-0.154082	0.991865	-0.121390	0.038316	0.121386	0.992602	0.002422	-0.038326	0.002249	0.999263						
04243														-1.565353	9.657941	0.221403	0.991781	-0.120747	0.042313	0.120442	0.992673	0.009694	-0.043174	-0.004518	0.999057						
04244														-1.944300	9.547009	0.633868	0.992107	-0.117346	0.044195	0.116678	0.993017	0.017409	-0.045929	-0.012115	0.998871						
04245														-1.985432	9.880535	0.794312	0.991850	-0.119129	0.045197	0.118302	0.992765	0.020566	-0.047320	-0.015052	0.998766						
04246														-1.039206	9.751165	0.583964	0.991668	-0.119513	0.048074	0.118639	0.992723	0.020645	-0.050192	-0.014769	0.998630						
04247														-2.346236	9.394492	0.836677	0.992109	-0.114689	0.050664	0.113636	0.993251	0.023216	-0.052985	-0.017275	0.998446						
04248														-2.160135	9.413027	0.775393	0.991153	-0.121483	0.053452	0.120509	0.992488	0.021095	-0.055613	-0.014467	0.998348						
04249														-1.949887	9.409467	0.566832	0.990041	-0.127694	0.059267	0.126968	0.991780	0.015881	-0.060807	-0.008198	0.998116						
04250														-2.337514	9.549155	0.529053	0.990334	-0.123977	0.062193	0.123509	0.992279	0.011331	-0.063118	-0.003540	0.998000						
04251														-2.390516	9.637775	0.109696	0.990194	-0.125158	0.062063	0.125347	0.992113	0.000859	-0.061681	0.006928	0.998072						
04252														-1.867011	9.630737	-0.683262	0.988990	-0.133575	0.063695	0.134641	0.990813	-0.012736	-0.061409	0.021172	0.997888						
04253														-1.490922	9.416601	-0.929399	0.988924	-0.132045	0.067771	0.133690	0.990815	-0.020325	-0.064465	0.029161	0.997494						
04254														-2.740705	9.414087	-0.715415	0.989476	-0.127075	0.069196	0.128972	0.991366	-0.023652	-0.065593	0.032328	0.997323						
04255														-2.767686	9.610530	-0.776601	0.989067	-0.129968	0.069678	0.132346	0.990729	-0.030654	-0.065048	0.039540	0.997098						
04256														-1.958822	9.734688	-1.040566	0.988186	-0.136626	0.069445	0.139510	0.989471	-0.038518	-0.063451	0.047751	0.996842						
04257														-1.849786	9.613437	-1.096235	0.988281	-0.135999	0.069325	0.139088	0.989395	-0.041851	-0.062898	0.051003	0.996716						
04258														-2.051172	9.500884	-0.908643	0.988435	-0.134402	0.070236	0.137488	0.989650	-0.041100	-0.063985	0.050281	0.996683						
04259														-2.577778	9.505927	-0.368323	0.989031	-0.130045	0.070047	0.132845	0.990450	-0.036893	-0.064581	0.045793	0.996861						
04260														-1.739999	9.707096	-0.072150	0.988926	-0.131239	0.069293	0.133861	0.990395	-0.034637	-0.064081	0.043529	0.996995						
04261														-2.134691	9.588701	0.111907	0.989119	-0.130124	0.068644	0.132626	0.990609	-0.033233	-0.063675	0.041975	0.997088						
04262														-1.534542	9.566469	0.192659	0.988876	-0.132394	0.067796	0.134840	0.990323	-0.032843	-0.062792	0.041619	0.997158						
04263														-2.008105	9.779050	-0.029705	0.989261	-0.130032	0.066738	0.132503	0.990598	-0.034025	-0.061687	0.042502	0.997190						
04264														-1.488153	9.575744	-0.985997	0.989915	-0.126053	0.064647	0.128640	0.990981	-0.037540	-0.059332	0.045477	0.997202						
04265														-2.200513	9.565038	-1.307971	0.990843	-0.118780	0.064198	0.121124	0.992057	-0.033929	-0.059658	0.041394	0.997360						
04266														-2.004040	9.682633	-0.991321	0.990771	-0.120503	0.062069	0.122224	0.992195	-0.024717	-0.058606	0.032075	0.997766						
04267														-1.358309	9.696271	-0.213664	0.989297	-0.131581	0.063073	0.132646	0.991078	-0.012983	-0.060802	0.021210	0.997924						
04268														-1.460414	9.529050	0.611444	0.988164	-0.138001	0.066996	0.138280	0.990393	0.000483	-0.066419	0.008787	0.997753						
04269														-2.155843	9.489004	1.161704	0.987592	-0.141348	0.068427	0.140905	0.989959	0.011270	-0.069333	-0.001488	0.997592						
04270														-1.916688	9.553050	1.265789	0.987327	-0.143636	0.067490	0.142763	0.989600	0.017604	-0.069317	-0.007746	0.997565						
04271														-1.428697	9.696872	0.830133	0.985882	-0.153679	0.066479	0.152780	0.988088	0.018445	-0.068521	-0.008028	0.997617						
04272														-0.937639	9.800501	0.576695	0.985820	-0.153888	0.066909	0.152836	0.988037	0.020597	-0.069279	-0.010079	0.997546						
04273														-1.906003	9.702445	0.488712	0.986335	-0.150775	0.066414	0.149681	0.988507	0.021180	-0.068844	-0.010950	0.997567						
04274														-1.560141	9.688376	0.148818	0.986306	-0.150957	0.066431	0.149898	0.988485	0.020676	-0.068787	-0.010435	0.997577						
04275														-1.657510	9.899349	0.036743	0.987252	-0.143866	0.068088	0.142832	0.989548	0.019835	-0.070229	-0.009857	0.997482						
04276														-2.984894	9.778081	0.122769	0.988880	-0.132718	0.067097	0.132098	0.991143	0.013608	-0.068309	-0.004594	0.997654						
04277														-2.459524	9.635784	-0.162672	0.990187	-0.125555	0.061365	0.125639	0.992073	0.002505	-0.061193	0.005229	0.998112						
04278														-2.393905	9.283859	-0.567505	0.989933	-0.129736	0.056582	0.130369	0.991436	-0.007626	-0.055108	0.014926	0.998369						
04279														-0.921230	9.543077	-0.513182	0.989465	-0.133228	0.056647	0.134080	0.990904	-0.011493	-0.054600	0.018967	0.998328						
04280														-2.458792	9.628968	-0.342099	0.989851	-0.130498	0.056262	0.131376	0.991258	-0.012181	-0.054180	0.019449	0.998342						
04281														-1.995392	9.523603	-0.506653	0.989717	-0.132084	0.054906	0.133063	0.991001	-0.014563	-0.052489	0.021719	0.998385						
04282														-1.728040	9.446412	-0.636551	0.989790	-0.132054	0.053636	0.133062	0.990984	-0.015664	-0.051084	0.022641	0.998438						
04283														-1.346563	9.521140	-0.616113	0.990496	-0.126723	0.053460	0.127562	0.991751	-0.012557	-0.051428	0.019257	0.998491						
04284														-2.043937	9.455246	-0.419204	0.990745	-0.123660	0.055972	0.124229	0.992230	-0.006802	-0.054696	0.013693	0.998409						
04285														-1.908954	9.598247	-0.431386	0.990165	-0.126433	0.059896	0.126770	0.991930	-0.001854	-0.059178	0.009428	0.998203						
04286														-1.552215	9.714208	-0.213174	0.989396	-0.130640	0.063476	0.130799	0.991408	0.001657	-0.063147	0.006663	0.997982						
04287														-1.521016	9.614611	0.094351	0.989230	-0.130172	0.066929	0.130186	0.991481	0.004177	-0.066902	0.004581	0.997749						
04288														-1.854864	9.553328	0.023948	0.988727	-0.131644	0.071337	0.131628	0.991287	0.004951	-0.071367	0.004495	0.997440						
04289														-2.065504	9.679500	0.013012	0.987721	-0.136179	0.076563	0.136325	0.990659	0.003334	-0.076301	0.007144	0.997059						
04290														-2.092667	9.591216	-0.025709	0.986094	-0.145158	0.080921	0.145749	0.989321	-0.001414	-0.079852	0.013188	0.996719						
04291														-1.617286	9.552687	-0.083951	0.984652	-0.152806	0.084324	0.153815	0.988084	-0.005563	-0.082469	0.018448	0.996423						
04292														-2.011636	9.725862	-0.141334	0.983655	-0.157915	0.086523	0.159218	0.987208	-0.008328	-0.084101	0.021968	0.996215						
04293														-1.942884	9.732370	-0.008666	0.982718	-0.163739	0.086346	0.165372	0.986158	-0.012060	-0.083176	0.026131	0.996192						
04294														-2.080072	9.703020	0.014144	0.982429	-0.166324	0.084669	0.168221	0.985624	-0.015743	-0.080834	0.029710	0.996285						
04295														-1.914578	9.618449	-0.084239	0.981154	-0.175090	0.081736	0.177257	0.983961	-0.020005	-0.076923	0.034116	0.996453						
04296														-1.705448	9.534100	-0.141639	0.980778	-0.179084	0.077481	0.181124	0.983255	-0.020093	-0.072585	0.033741	0.996791						
04297														-1.829504	9.553004	-0.114605	0.980645	-0.181915	0.072408	0.183644	0.982829	-0.017930	-0.067903	0.030880	0.997214						
04298														-1.780692	9.530747	0.026499	0.980549	-0.183870	0.068665	0.185327	0.982556	-0.015426	-0.064630	0.027852	0.997521						
04299														-1.930612	9.710879	0.087178	0.979990	-0.187562	0.066635	0.188977	0.981858	-0.015552	-0.062509	0.027833	0.997656						
04300														-1.363185	9.588489	-0.042296	0.979599	-0.189927	0.065671	0.191507	0.981315	-0.018610	-0.060909	0.030807	0.997668						
04301														-1.423700	9.568142	-0.169342	0.978949	-0.193088	0.066151	0.194897	0.980576	-0.022024	-0.060614	0.034453	0.997567						
04302														-1.643785	9.627715	-0.151679	0.978294	-0.195904	0.067542	0.197913	0.979916	-0.024396	-0.061406	0.037234	0.997418						
04303														-1.821067	9.617880	-0.094095	0.976991	-0.201824	0.068959	0.203992	0.978629	-0.025928	-0.062253	0.039398	0.997282						
04304														-1.889035	9.669549	0.042611	0.975148	-0.210019	0.070562	0.212386	0.976790	-0.027824	-0.063081	0.042119	0.997119						
04305														-2.062743	9.593415	0.003774	0.973203	-0.218527	0.071560	0.221087	0.974794	-0.029956	-0.063210	0.044974	0.996986						
04306														-1.843263	9.663615	-0.029256	0.971781	-0.224503	0.072393	0.227169	0.973366	-0.030865	-0.063535	0.046439	0.996899						
04307														-1.888512	9.486619	0.033884	0.971465	-0.225654	0.073051	0.228266	0.973151	-0.029536	-0.064425	0.045368	0.996891						
04308														-2.113216	9.562943	0.421054	0.971110	-0.227209	0.072948	0.229641	0.972907	-0.026775	-0.064888	0.042753	0.996976						
04309														-1.701461	9.700382	0.525114	0.969961	-0.231676	0.074176	0.234114	0.971863	-0.025937	-0.066080	0.042524	0.996908						
04310														-1.975540	9.685034	0.394059	0.968720	-0.236289	0.075826	0.238944	0.970630	-0.027970	-0.066990	0.045214	0.996729						
04311														-1.793416	9.700301	0.149200	0.968311	-0.237982	0.075750	0.240813	0.970089	-0.030608	-0.066200	0.047879	0.996657						
04312														-1.931435	9.545972	0.022654	0.967756	-0.240407	0.075182	0.243409	0.969343	-0.033572	-0.064806	0.050789	0.996605						
04313														-1.583536	9.501098	0.060622	0.966693	-0.244466	0.075775	0.247579	0.968246	-0.034696	-0.064887	0.052301	0.996521						
04314														-1.597312	9.703412	0.157265	0.966346	-0.245491	0.076873	0.248676	0.967958	-0.034898	-0.065842	0.052840	0.996430						
04315														-1.886968	9.652368	0.104456	0.966190	-0.245934	0.077414	0.249187	0.967806	-0.035465	-0.066200	0.053557	0.996368						
04316														-1.846927	9.656479	0.053426	0.965947	-0.247023	0.076981	0.250322	0.967475	-0.036493	-0.065462	0.054520	0.996365						
04317														-1.581254	9.575028	-0.052789	0.965123	-0.250250	0.076888	0.253606	0.966585	-0.037372	-0.064966	0.055568	0.996339						
04318														-1.383627	9.502431	-0.054234	0.964541	-0.252095	0.078152	0.255451	0.966142	-0.036252	-0.066367	0.054930	0.996282						
04319														-1.587008	9.673287	0.063843	0.964718	-0.250963	0.079596	0.254215	0.966565	-0.033582	-0.068507	0.052632	0.996261						
04320														-1.754681	9.651465	-0.027297	0.964180	-0.252740	0.080492	0.255975	0.966133	-0.032616	-0.069523	0.052051	0.996221						
04321														-1.444534	9.513476	-0.170967	0.963252	-0.255595	0.082568	0.258835	0.965421	-0.031084	-0.071769	0.051313	0.996101						
04322														-1.402978	9.597298	-0.284979	0.962128	-0.258914	0.085278	0.262156	0.964586	-0.029117	-0.074719	0.050370	0.995932						
04323														-1.444605	9.657595	-0.288247	0.962246	-0.257775	0.087372	0.260825	0.965054	-0.025303	-0.077797	0.047137	0.995854						
04324														-1.873140	9.618784	-0.386959	0.961322	-0.261053	0.087817	0.263858	0.964315	-0.021805	-0.078991	0.044133	0.995898						
04325														-0.985720	9.592179	-0.546633	0.959613	-0.266873	0.089001	0.269458	0.962840	-0.018197	-0.080837	0.041444	0.995865						
04326														-1.267380	9.675098	-0.502506	0.958434	-0.270487	0.090778	0.272631	0.962045	-0.011875	-0.084120	0.036130	0.995800						
04327														-1.444491	9.727489	-0.237864	0.955195	-0.281135	0.092553	0.282789	0.959169	-0.004996	-0.087370	0.030945	0.995695						
04328														-0.907023	9.748823	0.134244	0.950898	-0.294683	0.094630	0.295789	0.955250	0.002444	-0.091116	0.025666	0.995509						
04329														-1.060028	9.882234	0.494979	0.944440	-0.313866	0.097581	0.314524	0.949207	0.008959	-0.095436	0.022230	0.995187						
04330														-0.241078	9.748113	0.953447	0.940772	-0.323524	0.101390	0.323363	0.946095	0.018469	-0.101899	0.015410	0.994675						
04331														-1.506289	9.954947	1.564622	0.940685	-0.323601	0.101949	0.322474	0.946170	0.027807	-0.105460	0.006719	0.994401						
04332														-1.412947	10.097723	1.565590	0.939633	-0.327051	0.100636	0.325739	0.944994	0.029680	-0.104807	0.004893	0.994481						
04333														-0.855258	9.834134	1.218608	0.939312	-0.327947	0.100716	0.326852	0.944671	0.027662	-0.104215	0.006936	0.994531						
04334														-1.284963	9.673375	1.102970	0.941270	-0.321879	0.102007	0.320893	0.946748	0.026387	-0.105068	0.007896	0.994434						
04335														-1.888494	9.677019	0.710783	0.942826	-0.317521	0.101292	0.317112	0.948166	0.020540	-0.102563	0.012755	0.994645						
04336														-1.451544	9.595894	0.008254	0.945018	-0.311110	0.100757	0.311531	0.950161	0.011934	-0.099448	0.020111	0.994839						
04337														-2.475601	9.924526	-0.763592	0.948423	-0.301167	0.098956	0.302395	0.953179	0.002705	-0.095137	0.027358	0.995088						
04338														-2.189058	10.246313	-1.084750	0.950950	-0.294164	0.095716	0.295951	0.955191	-0.004722	-0.090038	0.032818	0.995397						
04339														-2.299416	10.105954	-0.960400	0.951689	-0.292389	0.093794	0.294373	0.955659	-0.007750	-0.087369	0.034986	0.995561						
04340														-2.235732	9.889233	-0.651489	0.948505	-0.301754	0.096347	0.304004	0.952626	-0.009240	-0.088994	0.038054	0.995305						
04341														-2.136077	9.367853	-0.621513	0.943191	-0.316559	0.100906	0.319196	0.947628	-0.010730	-0.092225	0.042329	0.994838						
04342														-1.769316	9.193216	-0.369206	0.939705	-0.326715	0.101049	0.329269	0.944191	-0.009253	-0.092387	0.041968	0.994838						
04343														-1.200696	9.349182	0.037329	0.937288	-0.334735	0.097181	0.336994	0.941478	-0.007357	-0.089031	0.039645	0.995240						
04344														-0.373465	9.281506	0.337987	0.933835	-0.345012	0.094443	0.347032	0.937838	-0.005348	-0.086728	0.037769	0.995516						
04345														0.282627	9.327703	0.915973	0.930061	-0.354417	0.096824	0.356188	0.934414	-0.001076	-0.090093	0.035488	0.995301						
04346														-0.264859	9.853101	2.042194	0.925892	-0.363604	0.102552	0.365161	0.930937	0.003833	-0.096863	0.033899	0.994720						
04347														-0.157177	10.360799	2.669828	0.920766	-0.374593	0.108950	0.376318	0.926477	0.005059	-0.102835	0.036342	0.994034						
04348														-0.019547	10.462453	2.982667	0.917238	-0.380816	0.116851	0.383249	0.923644	0.001783	-0.108608	0.043147	0.993148						
04349														-0.084745	10.494689	3.353832	0.918018	-0.376617	0.124110	0.379735	0.925094	-0.001586	-0.114216	0.048585	0.992267						
04350														-1.125673	10.942153	3.759432	0.921659	-0.365873	0.129160	0.370043	0.928971	-0.009042	-0.116677	0.056129	0.991583						
04351														-1.201886	10.991737	3.777151	0.923129	-0.360968	0.132417	0.366966	0.929944	-0.023236	-0.114753	0.070042	0.990922						
04352														-0.637581	10.818484	3.565886	0.922316	-0.361595	0.136316	0.370187	0.927953	-0.043176	-0.110883	0.090285	0.989724						
04353														0.026500	10.619981	3.067150	0.923287	-0.356535	0.142916	0.368381	0.927290	-0.066547	-0.108798	0.114090	0.987495						
04354														-0.869217	10.396216	2.421012	0.926324	-0.345836	0.149406	0.361416	0.927718	-0.093368	-0.106317	0.140487	0.984358						
04355														-1.261667	10.045942	1.719702	0.928227	-0.338344	0.154652	0.358050	0.925357	-0.124555	-0.100966	0.170989	0.980086						
04356														-1.353805	9.583326	0.976610	0.927753	-0.335961	0.162494	0.360443	0.919501	-0.156838	-0.096722	0.204077	0.974165						
04357														-1.626011	9.648229	0.628309	0.927047	-0.332555	0.173178	0.362553	0.912826	-0.187894	-0.095597	0.236973	0.966801						
04358														-2.253568	10.251927	0.236614	0.928080	-0.324712	0.182292	0.360128	0.907188	-0.217527	-0.094739	0.267531	0.958880						
04359														-3.304576	10.808346	-0.426575	0.928034	-0.320708	0.189473	0.361547	0.897944	-0.250960	-0.089651	0.301403	0.949273						
04360														-3.998608	11.117035	-1.281295	0.923348	-0.327941	0.199710	0.375375	0.880385	-0.289855	-0.080767	0.342603	0.936002						
04361														-2.958072	10.821564	-2.515774	0.916333	-0.338442	0.213989	0.393761	0.858668	-0.328088	-0.072706	0.384899	0.920091						
04362														-3.660565	9.943215	-3.075132	0.913192	-0.340141	0.224464	0.401907	0.842848	-0.357881	-0.067459	0.417028	0.906387						
04363														-4.683429	8.687217	-3.346350	0.910930	-0.343183	0.228982	0.407987	0.831763	-0.376452	-0.061267	0.436343	0.897692						
04364														-4.111349	7.860456	-3.441586	0.907861	-0.350908	0.229462	0.415749	0.824245	-0.384413	-0.054239	0.444392	0.894189						
04365														-3.386434	7.710614	-3.594589	0.906147	-0.357521	0.225999	0.420169	0.822192	-0.384003	-0.048525	0.442921	0.895246						
04366														-2.893336	7.625192	-3.611684	0.907959	-0.359231	0.215788	0.416762	0.827909	-0.375334	-0.043821	0.430720	0.901421						
04367														-1.874240	7.904448	-3.720381	0.912434	-0.357292	0.199516	0.407206	0.841074	-0.356059	-0.040590	0.406125	0.912916						
04368														-0.953211	8.593428	-4.166613	0.916708	-0.354869	0.183618	0.397407	0.857422	-0.326948	-0.041415	0.372687	0.927033						
04369														-0.510710	8.456758	-3.993935	0.920933	-0.349040	0.173357	0.385974	0.878404	-0.281834	-0.053906	0.326462	0.943672						
04370														-3.088657	9.378188	-2.817954	0.920328	-0.352598	0.169324	0.384306	0.895725	-0.223574	-0.072836	0.270834	0.959867						
04371														-4.061222	10.394952	-2.094360	0.906735	-0.384583	0.172995	0.411940	0.895538	-0.168279	-0.090206	0.223848	0.970441						
04372														-2.843264	11.541373	-1.783625	0.880150	-0.440649	0.176536	0.463875	0.877350	-0.122787	-0.100778	0.189962	0.976606						
04373														-1.457896	11.397642	-1.853574	0.845569	-0.504690	0.174074	0.523600	0.847623	-0.085899	-0.104197	0.163778	0.980979						
04374														0.154564	11.090346	-2.069087	0.812207	-0.559565	0.164943	0.573926	0.817122	-0.054042	-0.104539	0.138558	0.984821						
04375														-1.164360	11.723879	-2.276530	0.782339	-0.604176	0.151385	0.614225	0.788682	-0.026617	-0.103313	0.113808	0.988116						
04376														-3.545034	12.066929	-2.815435	0.739155	-0.659563	0.136476	0.665774	0.746153	0.000181	-0.101951	0.090728	0.990643						
04377														-1.915708	13.629361	-3.682209	0.673758	-0.729456	0.118083	0.732419	0.680422	0.024256	-0.098040	0.070143	0.992707						
04378														-0.284076	13.954433	-5.044435	0.616664	-0.781596	0.093988	0.781364	0.622237	0.047864	-0.095893	0.043923	0.994422						
04379														-2.386654	13.134452	-5.295000	0.577338	-0.814181	0.061565	0.809935	0.580608	0.083069	-0.103378	0.001904	0.994640						
04380														-4.508191	13.645648	-4.586843	0.535361	-0.844476	0.015775	0.836262	0.532590	0.130435	-0.118551	-0.056638	0.991331						
04381														-2.603985	15.173978	-4.369362	0.487375	-0.872239	-0.040807	0.862701	0.473770	0.176887	-0.134955	-0.121414	0.983385						
04382														-2.177227	16.266648	-4.205303	0.463067	-0.881112	-0.095969	0.871481	0.432903	0.230468	-0.161523	-0.190357	0.968336						
04383														-4.490244	16.831604	-3.346703	0.454304	-0.877425	-0.154058	0.869494	0.399098	0.291033	-0.193876	-0.266170	0.944228						
04384														-6.549026	16.649704	-2.988405	0.432825	-0.872134	-0.228133	0.874796	0.345228	0.339926	-0.217703	-0.346699	0.912363						
04385														-2.654725	15.705059	-3.310228	0.408542	-0.856723	-0.314830	0.881474	0.280828	0.379656	-0.236847	-0.432620	0.869910						
04386														-0.252869	14.102494	-2.897335	0.428009	-0.818517	-0.383195	0.862980	0.244188	0.442310	-0.268466	-0.520002	0.810879						
04387														-3.261379	12.125139	-2.072711	0.467726	-0.772725	-0.429101	0.829371	0.215853	0.515317	-0.305576	-0.596912	0.741836						
04388														-5.164409	10.087283	-1.715434	0.484460	-0.732169	-0.478777	0.809429	0.167554	0.562805	-0.331848	-0.660193	0.673812						
04389														-4.894752	8.704735	-1.255252	0.465589	-0.689739	-0.554515	0.818303	0.096886	0.566562	-0.337056	-0.717547	0.609525						
04390														-0.601056	7.657115	-1.461587	0.426091	-0.638785	-0.640625	0.844652	0.027250	0.534621	-0.324051	-0.768902	0.551162						
04391														3.539381	5.490681	-1.081388	0.415086	-0.591578	-0.691187	0.852015	-0.013636	0.523340	-0.319022	-0.806133	0.498373						
04392														0.742206	4.538570	-0.166339	0.428998	-0.557848	-0.710469	0.843222	-0.034749	0.536442	-0.323941	-0.829215	0.455483						
04393														-1.922415	4.632634	0.380350	0.428718	-0.533979	-0.728744	0.845227	-0.047794	0.532266	-0.319049	-0.844146	0.430843						
04394														-0.898702	4.424666	0.058206	0.405302	-0.511981	-0.757367	0.864834	-0.053780	0.499168	-0.296296	-0.857311	0.420982						
04395														0.821475	3.751002	-0.394250	0.388550	-0.492752	-0.778604	0.880754	-0.049670	0.470961	-0.270740	-0.868751	0.414694						
04396														0.382133	4.151307	-0.293914	0.390031	-0.485569	-0.782368	0.885410	-0.035527	0.463450	-0.252832	-0.873476	0.416071						
04397														-0.767747	5.408616	0.072082	0.393888	-0.495308	-0.774288	0.887709	-0.013478	0.460209	-0.238381	-0.868613	0.434380						
04398														-1.387094	7.239276	-0.282940	0.392886	-0.520073	-0.758396	0.893318	0.020136	0.448973	-0.218228	-0.853884	0.472502						
04399														-2.181557	8.205886	-1.014977	0.392749	-0.554993	-0.733301	0.899235	0.064699	0.432655	-0.192677	-0.829335	0.524480						
04400														-3.669052	8.292689	-1.606050	0.389135	-0.595970	-0.702420	0.906290	0.111135	0.407784	-0.164964	-0.795279	0.583368						
04401														-4.348985	8.459594	-1.819928	0.375037	-0.643074	-0.667685	0.916461	0.148855	0.371405	-0.139453	-0.751197	0.645179						
04402														-5.283350	9.236720	-1.174593	0.343169	-0.697517	-0.629051	0.931717	0.168011	0.321987	-0.118904	-0.696593	0.707545						
04403														-5.621993	10.611102	-0.419259	0.296051	-0.757116	-0.582349	0.949628	0.167710	0.264725	-0.102762	-0.631387	0.768629						
04404														-5.468786	12.654989	0.236528	0.247515	-0.815810	-0.522677	0.964709	0.157486	0.211032	-0.089848	-0.556465	0.825999						
04405														-5.696997	14.263583	0.814928	0.210886	-0.866095	-0.453218	0.974849	0.152150	0.162849	-0.072086	-0.476161	0.876398						
04406														-5.839531	14.950516	0.837465	0.183650	-0.906732	-0.379617	0.982095	0.152759	0.110243	-0.041971	-0.393066	0.918552						
04407														-5.435501	15.200107	0.615438	0.161580	-0.939933	-0.300695	0.986856	0.153099	0.051724	-0.002581	-0.305100	0.952317						
04408														-4.222052	15.339211	0.233590	0.156955	-0.964013	-0.214577	0.987004	0.160698	0.000004	0.034479	-0.211789	0.976707						
04409														-5.128757	15.794652	0.151313	0.168469	-0.977937	-0.123519	0.983516	0.175119	-0.045040	0.065677	-0.113896	0.991319						
04410														-6.657243	15.394831	0.300791	0.177507	-0.983652	-0.030341	0.979838	0.179523	-0.087689	0.091702	-0.014163	0.995686						
04411														-7.339920	14.858577	0.603024	0.173951	-0.982939	0.059765	0.978059	0.165385	-0.126683	0.114637	0.080491	0.990141						
04412														-8.127243	14.309963	1.077424	0.153573	-0.977764	0.142804	0.977989	0.129740	-0.163419	0.141258	0.164758	0.976167						
04413														-10.098993	14.193201	2.176682	0.104708	-0.971420	0.213026	0.976326	0.059642	-0.207917	0.189269	0.229754	0.954668						
04414														-9.237552	12.681650	1.836976	0.016712	-0.960987	0.276087	0.963985	-0.057817	-0.259598	0.265433	0.270482	0.925411						
04415														-3.989966	9.572369	0.904519	-0.062589	-0.939267	0.337432	0.940517	-0.168631	-0.294944	0.333932	0.298900	0.893951						
04416														-2.389340	7.819366	1.793763	-0.078022	-0.918805	0.386924	0.928705	-0.208110	-0.306916	0.362519	0.335392	0.869536						
04417														-5.795135	7.728463	2.988006	-0.046917	-0.903394	0.426238	0.931056	-0.194123	-0.308951	0.361847	0.382356	0.850218						
04418														-9.231616	7.218466	3.830100	-0.020574	-0.886563	0.462151	0.934269	-0.181632	-0.306840	0.355974	0.425460	0.832025						
04419														-9.678050	6.505701	3.969594	-0.019430	-0.868948	0.494522	0.936198	-0.189423	-0.296061	0.350935	0.457218	0.817188						
04420														-8.638228	6.288569	3.833898	-0.032014	-0.855217	0.517281	0.938112	-0.204277	-0.279672	0.344849	0.476314	0.808829						
04421														-8.024426	6.792578	3.756319	-0.043246	-0.849357	0.526045	0.940057	-0.212870	-0.266419	0.338264	0.482991	0.807649						
04422														-8.280161	7.045144	3.470877	-0.052782	-0.851479	0.521726	0.941177	-0.217038	-0.258999	0.333767	0.477366	0.812848						
04423														-8.107414	7.702003	3.302551	-0.066504	-0.859768	0.506336	0.941907	-0.221534	-0.252457	0.329225	0.460132	0.824554						
04424														-8.090083	9.954637	2.928799	-0.086787	-0.872527	0.480796	0.941101	-0.230120	-0.247737	0.326798	0.430977	0.841108						
04425														-8.591060	11.667580	2.118902	-0.120983	-0.886100	0.447426	0.936997	-0.250749	-0.243231	0.327718	0.389810	0.860610						
04426														-7.354097	13.046420	1.070740	-0.167097	-0.899835	0.402958	0.930060	-0.279499	-0.238469	0.327210	0.334928	0.883605						
04427														-5.989600	13.916538	0.380289	-0.210213	-0.915647	0.342639	0.923890	-0.300676	-0.236689	0.319746	0.266806	0.909163						
04428														-5.170488	14.217157	0.221543	-0.245255	-0.931275	0.269402	0.920957	-0.310604	-0.235295	0.302802	0.190400	0.933841						
04429														-5.530872	14.683765	0.184235	-0.274196	-0.943136	0.187913	0.920635	-0.313909	-0.232147	0.277933	0.109346	0.954357						
04430														-7.497906	15.208949	0.993194	-0.318321	-0.942481	0.101991	0.915391	-0.333561	-0.225380	0.246436	0.021618	0.968918						
04431														-6.805751	16.277974	1.688289	-0.380066	-0.924915	0.009028	0.901167	-0.372471	-0.221729	0.208444	-0.076136	0.975066						
04432														-4.101917	18.757538	1.152955	-0.433502	-0.896636	-0.090113	0.884151	-0.403859	-0.234894	0.174221	-0.181501	0.967835						
04433														-3.288775	17.588241	-0.324416	-0.450907	-0.871469	-0.192936	0.881360	-0.400566	-0.250500	0.141020	-0.282999	0.948697						
04434														-5.961954	15.805057	-0.011658	-0.446213	-0.845276	-0.293945	0.889911	-0.384369	-0.245598	0.094615	-0.371174	0.923731						
04435														-7.964600	15.800034	0.810887	-0.440457	-0.806726	-0.393943	0.896964	-0.376803	-0.231246	0.038114	-0.455207	0.889570						
04436														-6.735224	17.105435	0.537940	-0.432128	-0.754348	-0.494191	0.901721	-0.369224	-0.224884	-0.012827	-0.542801	0.839764						
04437														-6.010138	15.078751	0.022546	-0.405529	-0.696384	-0.592112	0.912094	-0.350977	-0.211896	-0.060257	-0.625991	0.777499						
04438														-7.396756	12.824500	0.847374	-0.372607	-0.631194	-0.680263	0.921252	-0.339768	-0.189347	-0.111617	-0.697246	0.708089						
04439														-7.917631	11.756775	1.208428	-0.349856	-0.552876	-0.756260	0.923651	-0.338378	-0.179917	-0.156430	-0.761465	0.629048						
04440														-6.166982	10.173162	1.416688	-0.334701	-0.461403	-0.821634	0.922633	-0.337774	-0.186162	-0.191631	-0.820375	0.538760						
04441														-5.120391	8.289358	1.581299	-0.319401	-0.360925	-0.876194	0.921040	-0.335696	-0.197467	-0.222864	-0.870081	0.439648						
04442														-4.597718	7.100466	1.651316	-0.305372	-0.262093	-0.915454	0.919584	-0.330753	-0.212056	-0.247211	-0.906592	0.342019						
04443														-3.119106	6.017465	1.549843	-0.293207	-0.171830	-0.940481	0.918949	-0.322033	-0.227657	-0.263748	-0.931004	0.252326						
04444														-2.149638	5.213789	1.509002	-0.273435	-0.094591	-0.957228	0.921778	-0.310152	-0.232660	-0.274879	-0.945970	0.171998						
04445														-1.536754	4.560695	1.574588	-0.247393	-0.031643	-0.968398	0.927704	-0.296127	-0.227320	-0.279575	-0.954624	0.102615						
04446														-1.083168	3.638810	1.567465	-0.223224	0.016488	-0.974628	0.934710	-0.280062	-0.218820	-0.276564	-0.959840	0.047105						
04447														-0.451187	2.896791	1.222347	-0.207887	0.047606	-0.976994	0.941067	-0.262689	-0.213042	-0.266788	-0.963705	0.009809						
04448														0.347774	2.202879	0.791916	-0.199738	0.059904	-0.978017	0.946332	-0.247034	-0.208398	-0.254087	-0.967153	-0.007347						
04449														0.823135	1.679203	0.648223	-0.194666	0.053360	-0.979417	0.950217	-0.237416	-0.201797	-0.243297	-0.969941	-0.004487						
04450														0.197770	1.852962	0.927789	-0.195050	0.027218	-0.980416	0.952233	-0.234216	-0.195946	-0.234962	-0.971803	0.019766						
04451														-0.988822	2.935300	1.387636	-0.208725	-0.016576	-0.977834	0.951916	-0.232716	-0.199248	-0.224254	-0.972404	0.064352						
04452														-1.896742	4.317776	1.723877	-0.234548	-0.074066	-0.969279	0.950248	-0.227717	-0.212543	-0.204979	-0.970906	0.123792						
04453														-3.084114	5.558610	1.900401	-0.265864	-0.145128	-0.953024	0.947530	-0.221360	-0.230622	-0.177491	-0.964333	0.196365						
04454														-4.750113	6.792986	2.126122	-0.297422	-0.232476	-0.926011	0.943098	-0.222583	-0.247030	-0.148685	-0.946790	0.285448						
04455														-4.985388	8.677222	2.530498	-0.312908	-0.336358	-0.888229	0.941232	-0.235025	-0.242580	-0.127162	-0.911936	0.390132						
04456														-7.179008	11.990478	3.221363	-0.308852	-0.447908	-0.839040	0.944960	-0.244668	-0.217230	-0.107987	-0.859951	0.498821						
04457														-9.102743	14.011585	3.534251	-0.306751	-0.554704	-0.773438	0.948648	-0.244158	-0.201132	-0.077272	-0.795418	0.601115						
04458														-8.989986	14.497344	3.650690	-0.316432	-0.648807	-0.692041	0.947914	-0.244312	-0.204380	-0.036471	-0.720668	0.692321						
04459														-6.996893	14.808643	3.373501	-0.328524	-0.732848	-0.595824	0.944445	-0.248350	-0.215281	0.009795	-0.633448	0.773723						
04460														-6.948983	16.209946	2.957816	-0.325003	-0.812105	-0.484622	0.943912	-0.246946	-0.219197	0.058336	-0.528680	0.846814						
04461														-8.256940	17.078243	2.572753	-0.306420	-0.879623	-0.363828	0.945917	-0.238603	-0.219794	0.106526	-0.411500	0.905163						
04462														-9.207878	16.604950	2.622180	-0.283381	-0.927706	-0.243014	0.947191	-0.231099	-0.222310	0.150078	-0.293180	0.944205						
04463														-9.429309	16.010223	2.922248	-0.264020	-0.956462	-0.124394	0.945756	-0.231410	-0.228023	0.189309	-0.177849	0.965677						
04464														-9.052067	15.231601	2.795776	-0.248420	-0.968577	-0.012051	0.941866	-0.238626	-0.236527	0.226219	-0.070108	0.971550						
04465														-8.847049	13.797867	2.690412	-0.234836	-0.968019	0.088270	0.936890	-0.249608	-0.244814	0.259017	0.025208	0.965544						
04466														-8.114295	12.372881	2.696240	-0.219184	-0.959774	0.175479	0.932987	-0.258797	-0.250120	0.285472	0.108897	0.952180						
04467														-7.504927	11.451944	2.582601	-0.196301	-0.947730	0.251543	0.931481	-0.260370	-0.254070	0.306283	0.184433	0.933903						
04468														-7.554453	10.467239	2.302838	-0.165247	-0.933432	0.318430	0.932565	-0.252956	-0.257558	0.320962	0.254396	0.912286						
04469														-8.665774	9.371149	2.577445	-0.131604	-0.917313	0.375789	0.935967	-0.239867	-0.257740	0.326567	0.317807	0.890142						
04470														-9.013636	8.674066	2.621548	-0.102231	-0.901435	0.420672	0.940442	-0.225411	-0.254476	0.324218	0.369602	0.870791						
04471														-9.371441	8.250902	2.621929	-0.078691	-0.888889	0.451313	0.944984	-0.210700	-0.250220	0.317510	0.406794	0.856566						
04472														-10.042919	7.955564	3.078303	-0.070162	-0.878980	0.471668	0.947849	-0.206112	-0.243106	0.310902	0.430013	0.847602						
04473														-9.716908	7.701084	3.203387	-0.080806	-0.871273	0.484101	0.948667	-0.216230	-0.230814	0.305779	0.440599	0.844021						
04474														-8.363944	7.449478	2.970584	-0.097769	-0.868305	0.486300	0.949188	-0.228233	-0.216685	0.299138	0.440405	0.846499						
04475														-8.055600	7.729859	2.946047	-0.111942	-0.872123	0.476310	0.950835	-0.233290	-0.203689	0.288760	0.430091	0.855359						
04476														-8.306259	8.581508	2.912410	-0.131536	-0.879650	0.457072	0.951476	-0.241423	-0.190811	0.278194	0.409794	0.868721						
04477														-8.155891	9.812015	2.552173	-0.162953	-0.887396	0.431248	0.949476	-0.259867	-0.175966	0.268218	0.380786	0.884907						
04478														-7.262721	10.572783	1.983808	-0.200222	-0.896025	0.396295	0.945765	-0.282371	-0.160609	0.255812	0.342644	0.903966						
04479														-6.285524	11.673135	1.529191	-0.236722	-0.906917	0.348518	0.941298	-0.302937	-0.148954	0.240667	0.292798	0.925391						
04480														-5.087189	13.349247	1.106919	-0.269584	-0.918293	0.289935	0.936013	-0.320626	-0.145185	0.226284	0.232244	0.945970						
04481														-4.345007	14.499637	0.235224	-0.301146	-0.926840	0.224229	0.929894	-0.337514	-0.146224	0.211206	0.164474	0.963504						
04482														-5.373048	14.818629	0.062470	-0.336206	-0.929207	0.153429	0.922968	-0.357492	-0.142582	0.187338	0.093674	0.977819						
04483														-6.171273	15.509415	0.385568	-0.377856	-0.922726	0.076174	0.911944	-0.385126	-0.141546	0.159944	0.015983	0.986997						
04484														-6.395991	16.336863	-0.249085	-0.416466	-0.909075	-0.011822	0.899077	-0.409885	-0.153800	0.134970	-0.074681	0.988031						
04485														-6.974179	17.786300	-0.085054	-0.450347	-0.886261	-0.108298	0.886431	-0.429283	-0.173078	0.106901	-0.173944	0.978936						
04486														-6.353031	18.752745	0.380257	-0.477836	-0.852654	-0.211314	0.875638	-0.443092	-0.192163	0.070217	-0.276857	0.958342						
04487														-6.499407	18.609552	0.875720	-0.493214	-0.810454	-0.316076	0.869540	-0.448740	-0.206235	0.025308	-0.376559	0.926047						
04488														-6.710391	18.035590	1.262523	-0.493520	-0.760990	-0.421108	0.869399	-0.445098	-0.214555	-0.024160	-0.471997	0.881269						
04489														-7.240646	16.983877	1.859348	-0.484358	-0.698879	-0.526275	0.872097	-0.433548	-0.226896	-0.069593	-0.568862	0.819483						
04490														-6.555297	14.867176	1.647004	-0.474598	-0.620350	-0.624438	0.873922	-0.416701	-0.250243	-0.104965	-0.664475	0.739902						
04491														-5.224846	12.181195	1.156794	-0.465674	-0.528797	-0.709592	0.875045	-0.394810	-0.280036	-0.132072	-0.751331	0.646575						
04492														-4.111056	10.112583	0.847198	-0.457080	-0.431304	-0.777853	0.876064	-0.369344	-0.309996	-0.153593	-0.823141	0.546670						
04493														-3.110812	8.761984	0.593771	-0.446355	-0.333894	-0.830230	0.878577	-0.339676	-0.335741	-0.169908	-0.879281	0.444968						
04494														-1.795028	7.241875	0.251992	-0.437951	-0.237993	-0.866924	0.881266	-0.304240	-0.361675	-0.177677	-0.922387	0.342977						
04495														0.123050	5.482768	-0.278301	-0.425176	-0.151722	-0.892304	0.886937	-0.266407	-0.377320	-0.180469	-0.951844	0.247837						
04496														1.253760	4.023868	-0.500753	-0.406383	-0.084179	-0.909817	0.895446	-0.234753	-0.378244	-0.181742	-0.968403	0.170777						
04497														1.316559	2.961099	-0.558172	-0.388438	-0.040178	-0.920598	0.903282	-0.214144	-0.371786	-0.182203	-0.975975	0.119474						
04498														1.080074	2.587905	-0.350591	-0.377477	-0.019826	-0.925807	0.908353	-0.202282	-0.366028	-0.180017	-0.979127	0.094366						
04499														1.183005	2.475118	-0.103756	-0.371266	-0.018835	-0.928335	0.912084	-0.194715	-0.360816	-0.173965	-0.980679	0.089470						
04500														0.744176	2.423011	0.084667	-0.367467	-0.036774	-0.929309	0.915481	-0.190395	-0.354464	-0.163901	-0.981019	0.103630						
04501														-0.022806	2.806926	0.162944	-0.363496	-0.075926	-0.928497	0.919222	-0.191136	-0.344236	-0.151332	-0.978623	0.139270						
04502														-0.814786	3.972854	0.294283	-0.357441	-0.135290	-0.924085	0.923765	-0.196842	-0.328499	-0.137456	-0.971056	0.195335						
04503														-1.489174	5.186461	0.621480	-0.347589	-0.210870	-0.913628	0.929354	-0.206789	-0.305843	-0.124435	-0.955391	0.267850						
04504														-2.700978	6.246542	1.253834	-0.338792	-0.299270	-0.891996	0.933944	-0.221726	-0.280333	-0.113883	-0.928049	0.354620						
04505														-5.388892	7.863171	2.359325	-0.349155	-0.393811	-0.850296	0.931508	-0.244539	-0.269246	-0.101899	-0.886066	0.452220						
04506														-6.495250	9.993074	2.885282	-0.385323	-0.486241	-0.784280	0.918757	-0.281443	-0.276903	-0.086089	-0.827260	0.555184						
04507														-5.777117	12.483514	2.845024	-0.412503	-0.578206	-0.703932	0.908074	-0.322419	-0.267297	-0.072408	-0.749483	0.658052						
04508														-6.072780	14.705275	2.894158	-0.407230	-0.666547	-0.624403	0.911504	-0.339758	-0.231786	-0.057649	-0.663536	0.745920						
04509														-7.274717	15.584636	3.188035	-0.390007	-0.739756	-0.548320	0.920190	-0.334991	-0.202562	-0.033835	-0.583559	0.811365						
04510														-6.814723	15.822066	3.512379	-0.395122	-0.793041	-0.463643	0.918613	-0.338159	-0.204447	0.005350	-0.506690	0.862112						
04511														-4.679847	16.805791	3.054290	-0.413679	-0.834826	-0.363229	0.908676	-0.353896	-0.221509	0.056376	-0.421691	0.904985						
04512														-4.045979	17.557463	2.343565	-0.419905	-0.872339	-0.250407	0.901021	-0.367615	-0.230260	0.108812	-0.322309	0.940360						
04513														-5.446403	17.526680	2.476796	-0.406897	-0.903529	-0.134425	0.900934	-0.372641	-0.222390	0.150844	-0.211598	0.965646						
04514														-6.871738	17.379855	3.316898	-0.388325	-0.921314	-0.019631	0.903113	-0.376244	-0.206946	0.183276	-0.098092	0.978155						
04515														-7.319974	16.657483	3.966760	-0.372633	-0.923417	0.091897	0.903567	-0.383612	-0.190811	0.211451	0.011933	0.977316						
04516														-7.565698	15.478322	4.062945	-0.357821	-0.912473	0.198387	0.903384	-0.392041	-0.173786	0.236351	0.117035	0.964594						
04517														-7.132792	14.008154	3.663936	-0.336323	-0.894857	0.293458	0.906641	-0.391952	-0.156128	0.254734	0.213552	0.943137						
04518														-7.361847	12.659109	3.561555	-0.301362	-0.880148	0.366769	0.916814	-0.373154	-0.142155	0.261979	0.293419	0.919387						
04519														-8.096423	11.178708	3.626636	-0.259769	-0.869758	0.419572	0.929309	-0.343265	-0.136215	0.262498	0.354528	0.897443						
04520														-9.206747	9.810060	3.607959	-0.224178	-0.859214	0.459887	0.938680	-0.317220	-0.135097	0.261962	0.401401	0.877641						
04521														-9.090452	8.673707	3.383760	-0.199766	-0.849097	0.489007	0.944183	-0.300224	-0.135588	0.261939	0.434626	0.861678						
04522														-8.592785	7.560824	3.062867	-0.179695	-0.844298	0.504846	0.948161	-0.285391	-0.139794	0.262106	0.453556	0.851814						
04523														-8.943966	6.707672	2.709870	-0.164885	-0.843852	0.510614	0.950840	-0.273587	-0.145097	0.262138	0.461588	0.847479						
04524														-9.554319	6.293387	2.658436	-0.164024	-0.844289	0.510168	0.951223	-0.272356	-0.144902	0.261287	0.461517	0.847781						
04525														-9.257137	6.654872	2.751524	-0.178374	-0.845746	0.502887	0.949054	-0.282806	-0.138989	0.259769	0.452475	0.853104						
04526														-8.714440	7.653149	2.548562	-0.199550	-0.851369	0.485130	0.945021	-0.298101	-0.134427	0.259065	0.431633	0.864047						
04527														-8.157568	9.080624	2.372867	-0.224016	-0.860559	0.457444	0.939622	-0.315305	-0.133019	0.258705	0.400026	0.879233						
04528														-7.836391	10.489393	1.915505	-0.251379	-0.870673	0.422772	0.932632	-0.334713	-0.134780	0.258857	0.360410	0.896157						
04529														-7.586704	10.803451	1.228015	-0.281587	-0.879718	0.383151	0.924560	-0.355580	-0.136934	0.256704	0.315687	0.913479						
04530														-6.969411	11.308946	0.298020	-0.304391	-0.892407	0.333101	0.920249	-0.365793	-0.139058	0.245942	0.264208	0.932581						
04531														-8.593943	13.036195	0.271872	-0.326030	-0.906026	0.269855	0.917270	-0.372247	-0.141587	0.228734	0.201368	0.952435						
04532														-10.447468	15.235881	0.584540	-0.375765	-0.904700	0.200797	0.902059	-0.406726	-0.144440	0.212344	0.126856	0.968926						
04533														-10.013892	18.588468	0.628635	-0.454220	-0.881663	0.127885	0.869483	-0.469993	-0.152005	0.194122	0.042150	0.980071						
04534														-6.665525	20.942972	0.342049	-0.522777	-0.851625	0.037947	0.835419	-0.520671	-0.176002	0.169646	-0.060308	0.983658						
04535														-5.350464	21.161657	0.129627	-0.552845	-0.829981	-0.074114	0.822441	-0.529188	-0.208689	0.133987	-0.176327	0.975170						
04536														-5.790455	20.970971	0.218251	-0.549630	-0.811062	-0.200214	0.831209	-0.506929	-0.228286	0.083660	-0.291893	0.952785						
04537														-6.674252	20.749236	0.306918	-0.526140	-0.783374	-0.330910	0.850095	-0.474118	-0.229238	0.022689	-0.401916	0.915395						
04538														-7.048038	19.637659	0.223614	-0.491538	-0.738959	-0.460793	0.869786	-0.442797	-0.217722	-0.043150	-0.507810	0.860388						
04539														-7.758149	18.274570	0.812482	-0.456918	-0.672115	-0.582655	0.882922	-0.422259	-0.205296	-0.108048	-0.608242	0.786363						
04540														-7.268243	17.146304	1.475853	-0.431516	-0.582829	-0.688553	0.886571	-0.415030	-0.204309	-0.166693	-0.698613	0.695811						
04541														-4.686392	15.297865	1.094236	-0.401979	-0.481822	-0.778627	0.890227	-0.404635	-0.209203	-0.214261	-0.777250	0.591586						
04542														-3.154312	12.062318	0.936708	-0.357129	-0.380054	-0.853239	0.898829	-0.388330	-0.203239	-0.254097	-0.839499	0.480288						
04543														-2.996901	9.578045	1.342572	-0.310641	-0.279686	-0.908448	0.905959	-0.376338	-0.193926	-0.287645	-0.883258	0.370291						
04544														-1.885329	8.158374	1.769825	-0.274369	-0.178828	-0.944850	0.910202	-0.365296	-0.195170	-0.310248	-0.913553	0.262995						
04545														-0.202949	6.940246	1.436273	-0.246909	-0.084248	-0.965369	0.915889	-0.345683	-0.204086	-0.316517	-0.934562	0.162514						
04546														1.210691	5.265600	0.596439	-0.216948	-0.007595	-0.976154	0.925322	-0.320165	-0.203160	-0.310988	-0.947331	0.076487						
04547														1.226316	3.612092	-0.051362	-0.181590	0.047497	-0.982227	0.936129	-0.297528	-0.187455	-0.301144	-0.953531	0.009565						
04548														0.564620	2.327840	-0.172310	-0.150040	0.083274	-0.985167	0.945054	-0.280650	-0.167654	-0.290448	-0.956191	-0.036589						
04549														0.136407	1.444593	0.056239	-0.133042	0.101434	-0.985906	0.950679	-0.268164	-0.155878	-0.280196	-0.958018	-0.060754						
04550														0.300787	1.230301	0.304433	-0.132929	0.102501	-0.985811	0.953940	-0.256659	-0.155318	-0.268938	-0.961051	-0.063662						
04551														0.468655	1.156770	0.353783	-0.139605	0.085025	-0.986550	0.956392	-0.246566	-0.156587	-0.256563	-0.965389	-0.046895						
04552														0.193617	1.534453	0.495249	-0.147501	0.048285	-0.987883	0.958722	-0.238512	-0.154805	-0.243096	-0.969938	-0.011111						
04553														-1.005185	2.651939	0.315601	-0.155359	-0.012454	-0.987780	0.961126	-0.232950	-0.148230	-0.228257	-0.972409	0.048161						
04554														-2.366135	3.917335	-0.061401	-0.158672	-0.096190	-0.982634	0.963834	-0.230926	-0.133031	-0.214120	-0.968205	0.129353						
04555														-3.641366	5.621257	-0.014570	-0.157538	-0.192650	-0.968539	0.966996	-0.228981	-0.111741	-0.200250	-0.954177	0.222365						
04556														-4.886159	7.029284	0.467434	-0.161756	-0.293272	-0.942246	0.969868	-0.223521	-0.096927	-0.182186	-0.929532	0.320591						
04557														-7.334444	8.796360	0.840117	-0.192708	-0.396220	-0.897705	0.968685	-0.222784	-0.109616	-0.156563	-0.890717	0.426744						
04558														-7.840242	10.128693	0.699099	-0.250383	-0.498993	-0.829647	0.959567	-0.241739	-0.144198	-0.128604	-0.832207	0.539344						
04559														-6.339041	12.448889	1.275459	-0.303345	-0.593770	-0.745265	0.947027	-0.274421	-0.166830	-0.105457	-0.756393	0.645560						
04560														-6.740762	16.065009	1.535528	-0.321573	-0.686643	-0.652006	0.943563	-0.290005	-0.159959	-0.079250	-0.666647	0.741149						
04561														-9.283393	17.432380	1.482561	-0.312387	-0.773129	-0.551983	0.948899	-0.281347	-0.142949	-0.044781	-0.568432	0.821511						
04562														-10.142578	17.314545	1.762693	-0.299182	-0.842450	-0.448072	0.954167	-0.267812	-0.133574	-0.007470	-0.467498	0.883962						
04563														-9.020415	16.906939	1.750793	-0.291527	-0.894716	-0.338371	0.955993	-0.260316	-0.135322	0.032991	-0.362930	0.931232						
04564														-7.868770	16.615010	1.512426	-0.283460	-0.932975	-0.221830	0.956151	-0.257189	-0.140103	0.073660	-0.251816	0.964968						
04565														-7.853223	16.450099	1.488757	-0.269056	-0.957718	-0.101911	0.956869	-0.253768	-0.141430	0.109588	-0.135568	0.984689						
04566														-8.133891	15.826901	1.868475	-0.249797	-0.968216	0.012614	0.958507	-0.249098	-0.138614	0.137350	-0.022535	0.990266						
04567														-8.799072	15.084564	2.193741	-0.229993	-0.966048	0.117702	0.960026	-0.245044	-0.135294	0.159542	0.081880	0.983790						
04568														-9.741897	14.078450	2.264534	-0.211621	-0.953915	0.212751	0.961432	-0.242311	-0.130129	0.175684	0.177007	0.968403						
04569														-8.795617	12.762698	1.852315	-0.181093	-0.940162	0.288617	0.966376	-0.224583	-0.125219	0.182545	0.256236	0.949221						
04570														-9.796549	11.198906	1.917801	-0.131501	-0.930995	0.340523	0.974788	-0.183905	-0.126363	0.180267	0.315321	0.931706						
04571														-10.799803	9.510688	2.188321	-0.088129	-0.922203	0.376531	0.980181	-0.147614	-0.132122	0.177424	0.357424	0.916934						
04572														-10.522386	7.927664	2.115342	-0.063351	-0.912461	0.404230	0.982049	-0.129104	-0.137517	0.177667	0.388262	0.904260						
04573														-9.722667	6.492193	1.931484	-0.047519	-0.904372	0.424091	0.983058	-0.117587	-0.140604	0.177026	0.410225	0.894638						
04574														-10.156274	6.196562	1.658912	-0.036292	-0.899613	0.435178	0.983599	-0.109144	-0.143598	0.176680	0.422829	0.888819						
04575														-10.674050	6.415131	1.551453	-0.038117	-0.898265	0.437797	0.983295	-0.111750	-0.143675	0.177982	0.425008	0.887520						
04576														-10.290805	6.956137	1.194879	-0.050804	-0.901453	0.429884	0.982487	-0.122376	-0.140508	0.179269	0.415218	0.891884						
04577														-9.903935	7.888097	0.993819	-0.072011	-0.909236	0.410006	0.981254	-0.138257	-0.134260	0.178760	0.392652	0.902147						
04578														-8.834813	9.482859	0.699632	-0.099681	-0.920252	0.378419	0.979213	-0.158244	-0.126885	0.176649	0.357905	0.916896						
04579														-8.332321	11.599021	0.269725	-0.131872	-0.931978	0.337678	0.975971	-0.181685	-0.120300	0.173468	0.313700	0.933542						
04580														-7.883814	12.705147	-0.291425	-0.171796	-0.941363	0.290382	0.970482	-0.212368	-0.114300	0.169265	0.262174	0.950060						
04581														-7.270246	13.174004	-0.864502	-0.219189	-0.946705	0.236020	0.961972	-0.250102	-0.109815	0.162991	0.202974	0.965523						
04582														-7.287910	14.618973	-1.279568	-0.272354	-0.946357	0.173874	0.950192	-0.292984	-0.106279	0.151520	0.136268	0.979016						
04583														-7.380383	15.649576	-1.151504	-0.330104	-0.938670	0.099645	0.934640	-0.339809	-0.104772	0.132207	0.058546	0.989492						
04584														-7.094564	16.640749	-1.113990	-0.389186	-0.921087	0.011519	0.914826	-0.387943	-0.112223	0.107836	-0.033138	0.993616						
04585														-6.991053	18.109609	-0.995549	-0.444960	-0.891400	-0.086124	0.892037	-0.432649	-0.130709	0.079252	-0.134986	0.987673						
04586														-6.519289	19.021831	-0.893338	-0.491414	-0.849653	-0.191318	0.869799	-0.467615	-0.157439	0.044305	-0.243776	0.968819						
04587														-5.799232	19.023621	-1.059778	-0.515164	-0.802310	-0.301503	0.857090	-0.481572	-0.182991	0.001620	-0.352686	0.935740						
04588														-6.263393	18.235942	-0.985586	-0.510466	-0.753655	-0.414040	0.858472	-0.474369	-0.194933	-0.049496	-0.454949	0.889141						
04589														-7.483495	17.300421	-0.815146	-0.484415	-0.699886	-0.524882	0.868297	-0.457873	-0.190819	-0.106777	-0.548190	0.829510						
04590														-8.310027	16.293474	-0.623245	-0.448373	-0.634755	-0.629323	0.878361	-0.443379	-0.178599	-0.165662	-0.632852	0.756343						
04591														-7.160885	15.111914	-0.800284	-0.397852	-0.564717	-0.723055	0.889934	-0.429111	-0.154533	-0.223004	-0.704953	0.673284						
04592														-7.564485	13.397420	-0.614397	-0.330261	-0.493430	-0.804645	0.901625	-0.417154	-0.114256	-0.279284	-0.763223	0.582659						
04593														-7.694575	11.171213	-0.134917	-0.265913	-0.403906	-0.875300	0.905747	-0.415528	-0.083418	-0.330019	-0.814983	0.476331						
04594														-4.916254	9.230851	0.307331	-0.223071	-0.287308	-0.931501	0.903986	-0.418536	-0.087391	-0.364758	-0.861558	0.353086						
04595														-0.190998	7.169147	0.317399	-0.192853	-0.162035	-0.967756	0.904171	-0.412465	-0.111122	-0.381160	-0.896447	0.226053						
04596														3.164684	4.395060	-0.154453	-0.162388	-0.055529	-0.985163	0.907242	-0.400995	-0.126942	-0.387997	-0.914396	0.115495						
04597														4.486190	2.105241	-0.290541	-0.132106	0.016241	-0.991103	0.908372	-0.398217	-0.127604	-0.396746	-0.917147	0.037854						
04598														3.906568	1.792810	0.177752	-0.110216	0.056552	-0.992297	0.906756	-0.403105	-0.123688	-0.406995	-0.913405	-0.006850						
04599														3.460277	1.831085	0.433060	-0.102340	0.074482	-0.991957	0.905601	-0.405634	-0.123888	-0.411599	-0.910996	-0.025938						
04600														3.182531	1.757838	0.353662	-0.108138	0.070793	-0.991612	0.906067	-0.403433	-0.127611	-0.409083	-0.912267	-0.020517						
04601														2.548759	2.367304	0.166183	-0.123131	0.039939	-0.991586	0.906789	-0.401438	-0.128771	-0.403203	-0.915015	0.013213						
04602														0.688673	3.513947	0.123264	-0.140464	-0.020456	-0.989875	0.906665	-0.404334	-0.120301	-0.397779	-0.914383	0.075341						
04603														-0.884679	5.153253	0.721562	-0.157816	-0.100026	-0.982389	0.906316	-0.409633	-0.103887	-0.392027	-0.906750	0.155302						
04604														-2.013575	7.580374	1.264848	-0.182365	-0.191773	-0.964347	0.908189	-0.408665	-0.090477	-0.376744	-0.892310	0.248692						
04605														-4.898032	9.978399	0.752324	-0.218198	-0.298811	-0.929032	0.912668	-0.399587	-0.085833	-0.345581	-0.866627	0.359905						
04606														-6.013216	10.747454	0.572066	-0.256071	-0.406462	-0.877050	0.916169	-0.391438	-0.086084	-0.308321	-0.825569	0.472624						
04607														-5.544143	11.878905	1.144084	-0.284011	-0.508625	-0.812797	0.919232	-0.385512	-0.079959	-0.272674	-0.769858	0.577034						
04608														-7.902463	15.183875	1.527966	-0.306617	-0.608211	-0.732165	0.923588	-0.376108	-0.074348	-0.230154	-0.699016	0.677057						
04609														-9.700474	16.752855	1.739146	-0.336159	-0.696111	-0.634371	0.925690	-0.368282	-0.086406	-0.173479	-0.616277	0.768185						
04610														-8.203680	17.523028	2.150401	-0.359360	-0.767175	-0.531321	0.926251	-0.362576	-0.102948	-0.113665	-0.529132	0.840892						
04611														-7.000526	18.506147	2.198504	-0.362007	-0.831012	-0.422339	0.930806	-0.346796	-0.115468	-0.050511	-0.434916	0.899053						
04612														-8.250678	19.597991	1.030491	-0.342615	-0.890210	-0.300234	0.939267	-0.317840	-0.129441	0.019803	-0.326348	0.945042						
04613														-9.436157	18.558014	-0.228360	-0.305501	-0.935909	-0.175341	0.948475	-0.282849	-0.142802	0.084055	-0.209932	0.974096						
04614														-9.618983	16.678035	-0.484466	-0.256980	-0.964320	-0.063623	0.957852	-0.245405	-0.149316	0.128375	-0.099312	0.986741						
04615														-10.827924	15.358705	-0.184901	-0.212691	-0.976426	0.036806	0.964182	-0.215836	-0.154170	0.158479	0.002697	0.987359						
04616														-11.527848	13.808379	-0.028763	-0.186196	-0.973968	0.129295	0.965349	-0.205842	-0.160405	0.182844	0.094948	0.978546						
04617														-10.381348	12.122382	0.027439	-0.167261	-0.964522	0.204256	0.965214	-0.202427	-0.165488	0.200964	0.169471	0.964828						
04618														-9.972397	10.377897	0.494512	-0.140668	-0.955938	0.257673	0.967313	-0.188165	-0.169997	0.210991	0.225337	0.951160						
04619														-10.070405	8.700717	0.719066	-0.110651	-0.948383	0.297196	0.970010	-0.168170	-0.175495	0.216416	0.268865	0.938550						
04620														-10.360299	7.080111	0.975372	-0.084288	-0.941686	0.325765	0.972611	-0.148822	-0.178548	0.216617	0.301793	0.928439						
04621														-10.407236	6.205993	1.241756	-0.069173	-0.936478	0.343837	0.974406	-0.137321	-0.177978	0.213889	0.322725	0.922009						
04622														-9.745760	5.723683	1.196332	-0.065585	-0.933687	0.352032	0.975294	-0.134564	-0.175199	0.210952	0.331844	0.919445						
04623														-9.447848	5.856080	1.429954	-0.071164	-0.932635	0.353734	0.976130	-0.138071	-0.167652	0.205199	0.333360	0.920198						
04624														-9.817112	7.124621	1.947471	-0.084067	-0.933075	0.349721	0.976680	-0.146739	-0.156730	0.197558	0.328390	0.923651						
04625														-10.047684	8.316369	2.216050	-0.100413	-0.937267	0.333838	0.976232	-0.157584	-0.148790	0.192064	0.310963	0.930813						
04626														-10.034330	9.543300	2.238919	-0.118916	-0.945562	0.302938	0.974669	-0.169371	-0.146060	0.189418	0.277896	0.941751						
04627														-9.785706	10.249620	1.978360	-0.145695	-0.954123	0.261578	0.971252	-0.188255	-0.145701	0.188260	0.232831	0.954122						
04628														-9.750323	10.958949	1.218643	-0.184130	-0.959463	0.213372	0.965287	-0.217432	-0.144721	0.185249	0.179318	0.966193						
04629														-9.286887	12.097550	1.082800	-0.234771	-0.959484	0.155799	0.955574	-0.257193	-0.143979	0.178215	0.115076	0.977239						
04630														-7.746776	13.290448	0.452373	-0.284659	-0.954956	0.083830	0.943726	-0.294519	-0.150462	0.168374	0.036283	0.985055						
04631														-7.126134	14.144501	-0.125253	-0.323057	-0.946376	0.002378	0.933899	-0.319202	-0.161066	0.153188	-0.049813	0.986941						
04632														-8.984455	15.586942	0.424001	-0.360170	-0.929382	-0.080789	0.924258	-0.343747	-0.166089	0.126589	-0.134490	0.982796						
04633														-9.953556	17.390417	0.809618	-0.405615	-0.898207	-0.169411	0.909319	-0.377706	-0.174579	0.092821	-0.224861	0.969960						
04634														-9.066166	18.553696	0.255540	-0.449815	-0.851812	-0.268481	0.891046	-0.407527	-0.199900	0.060864	-0.329147	0.942315						
04635														-8.122065	19.291627	0.023265	-0.475721	-0.795890	-0.374498	0.879279	-0.418850	-0.226790	0.023641	-0.437177	0.899065						
04636														-7.130905	18.435715	-0.050982	-0.475089	-0.736663	-0.481267	0.879629	-0.412084	-0.237570	-0.023313	-0.536203	0.843767						
04637														-7.299349	16.755108	0.013319	-0.449902	-0.674350	-0.585525	0.889692	-0.395465	-0.228158	-0.077696	-0.623586	0.777884						
04638														-7.551065	15.065080	0.070885	-0.412388	-0.603669	-0.682290	0.901358	-0.379090	-0.209390	-0.132247	-0.701338	0.700454						
04639														-7.243471	13.313115	0.188263	-0.372323	-0.521808	-0.767523	0.910247	-0.366742	-0.192225	-0.181178	-0.770206	0.611521						
04640														-6.052288	11.352875	0.241415	-0.338219	-0.429080	-0.837555	0.914693	-0.359118	-0.185393	-0.221233	-0.828809	0.513938						
04641														-4.193756	9.313883	0.289647	-0.309375	-0.332319	-0.890983	0.916650	-0.353556	-0.186417	-0.253062	-0.874393	0.414001						
04642														-2.207426	7.405845	0.389764	-0.281202	-0.237592	-0.929772	0.918541	-0.347172	-0.189089	-0.277864	-0.907205	0.315864						
04643														-0.720519	5.685197	0.528221	-0.251409	-0.151764	-0.955908	0.921909	-0.338313	-0.188755	-0.294750	-0.928715	0.224968						
04644														0.301814	4.297677	0.519626	-0.222527	-0.079672	-0.971666	0.925776	-0.329729	-0.184981	-0.305649	-0.940708	0.147132						
04645														1.303093	2.948166	0.413149	-0.197779	-0.024791	-0.979933	0.929056	-0.323571	-0.179325	-0.312633	-0.945879	0.087028						
04646														1.805751	2.222313	0.361034	-0.178140	0.010048	-0.983954	0.931515	-0.320506	-0.171919	-0.317090	-0.947193	0.047735						
04647														1.779400	1.833488	0.310537	-0.167879	0.023104	-0.985537	0.932276	-0.321236	-0.166338	-0.320433	-0.946717	0.032389						
04648														1.518459	1.986171	0.488185	-0.168171	0.015667	-0.985633	0.931371	-0.325003	-0.164078	-0.322904	-0.945583	0.040064						
04649														0.644599	2.791832	0.562110	-0.176224	-0.014316	-0.984246	0.930603	-0.328306	-0.161845	-0.320816	-0.944463	0.071178						
04650														-0.552405	3.963027	0.419319	-0.187309	-0.066743	-0.980031	0.931430	-0.328972	-0.155616	-0.312016	-0.941978	0.123785						
04651														-1.936703	5.171617	0.517036	-0.199384	-0.136238	-0.970405	0.933358	-0.328039	-0.145718	-0.298479	-0.934788	0.192565						
04652														-2.800807	6.513103	0.944586	-0.218634	-0.219028	-0.950908	0.934948	-0.326052	-0.139864	-0.279411	-0.919629	0.276066						
04653														-3.662312	8.376943	1.092050	-0.247567	-0.313809	-0.916643	0.935375	-0.324029	-0.141697	-0.252553	-0.892485	0.373748						
04654														-5.582534	10.178986	0.746474	-0.281298	-0.419219	-0.863207	0.934279	-0.324999	-0.146622	-0.219075	-0.847721	0.483089						
04655														-7.041855	11.934204	0.374199	-0.305851	-0.525401	-0.793983	0.934135	-0.326752	-0.143618	-0.183978	-0.785612	0.590733						
04656														-7.041266	13.906061	0.178435	-0.313936	-0.623086	-0.716385	0.938132	-0.319696	-0.133051	-0.146123	-0.713833	0.684902						
04657														-8.603011	15.263785	0.209219	-0.318728	-0.711790	-0.625913	0.941989	-0.311167	-0.125820	-0.105207	-0.629706	0.769677						
04658														-8.881124	15.804224	0.727574	-0.332540	-0.787443	-0.518991	0.940798	-0.315320	-0.124388	-0.065700	-0.529629	0.845681						
04659														-7.964857	16.845447	1.422040	-0.339759	-0.848395	-0.405943	0.940117	-0.318868	-0.120428	-0.027272	-0.422550	0.905929						
04660														-7.848767	17.782855	1.545050	-0.328635	-0.897575	-0.293867	0.944294	-0.306490	-0.119887	0.017540	-0.316896	0.948298						
04661														-9.267851	17.023501	1.104382	-0.306802	-0.934507	-0.180469	0.949577	-0.287667	-0.124701	0.064619	-0.209627	0.975644						
04662														-9.813567	16.054261	0.841590	-0.281584	-0.957081	-0.068603	0.953924	-0.271498	-0.127741	0.103633	-0.101412	0.989432						
04663														-9.649958	15.320869	0.947027	-0.249091	-0.967882	0.034022	0.959593	-0.251401	-0.126410	0.130903	0.001159	0.991394						
04664														-10.212440	14.032303	1.553306	-0.213672	-0.969004	0.124000	0.965265	-0.228955	-0.125869	0.150358	0.092798	0.984267						
04665														-10.937283	12.190544	1.907902	-0.183960	-0.962106	0.201275	0.968943	-0.211925	-0.127427	0.165253	0.171582	0.971211						
04666														-11.224111	10.389014	1.879067	-0.161329	-0.951136	0.263273	0.971047	-0.200609	-0.129707	0.176184	0.234724	0.955962						
04667														-10.951775	8.700207	2.078154	-0.142601	-0.941082	0.306642	0.973008	-0.190079	-0.130863	0.181439	0.279704	0.942786						
04668														-10.543861	7.340774	2.453153	-0.128305	-0.933622	0.334495	0.975074	-0.180322	-0.129287	0.181022	0.309569	0.933487						
04669														-10.649856	6.878880	2.670466	-0.119226	-0.928956	0.350465	0.976797	-0.172998	-0.126253	0.177913	0.327280	0.928027						
04670														-10.616530	6.482379	2.644070	-0.118529	-0.927722	0.353954	0.977382	-0.171882	-0.123211	0.175143	0.331344	0.927112						
04671														-9.828427	6.256615	2.686637	-0.124645	-0.930922	0.343290	0.977054	-0.175387	-0.120850	0.172710	0.320350	0.931422						
04672														-9.192159	6.680193	2.180584	-0.136148	-0.936981	0.321761	0.975511	-0.183428	-0.121378	0.172749	0.297356	0.939009						
04673														-9.008911	7.313087	1.566442	-0.156574	-0.943026	0.293576	0.972385	-0.199269	-0.121487	0.173066	0.266447	0.948185						
04674														-8.569810	8.468623	1.402132	-0.184780	-0.948310	0.258001	0.967854	-0.221171	-0.119760	0.170632	0.227578	0.958693						
04675														-7.461886	10.255990	0.911378	-0.213245	-0.953332	0.213740	0.962345	-0.242707	-0.122417	0.168580	0.179587	0.969190						
04676														-7.644520	11.374918	0.301791	-0.236558	-0.957681	0.163975	0.957552	-0.258401	-0.127759	0.164723	0.126792	0.978156						
04677														-8.281741	12.174695	0.019874	-0.261729	-0.958994	0.108763	0.952782	-0.274708	-0.129389	0.153961	0.069762	0.985611						
04678														-8.514521	12.538397	-0.257017	-0.290196	-0.956072	0.041379	0.947243	-0.293127	-0.129643	0.136077	0.001574	0.990697						
04679														-8.888974	13.872567	0.101773	-0.324334	-0.945239	-0.036485	0.939058	-0.317089	-0.132759	0.113920	-0.077320	0.990477						
04680														-9.069617	16.248074	0.513681	-0.367422	-0.922346	-0.119493	0.925529	-0.349945	-0.144691	0.091639	-0.163756	0.982235						
04681														-8.727900	17.150723	0.125077	-0.409389	-0.888255	-0.208337	0.909747	-0.380164	-0.166838	0.068992	-0.257836	0.963722						
04682														-8.305537	16.833490	-0.409412	-0.431496	-0.849094	-0.304715	0.901135	-0.389955	-0.189448	0.042034	-0.356335	0.933412						
04683														-8.768369	16.824594	-0.156005	-0.429927	-0.806242	-0.406369	0.902853	-0.381752	-0.197792	0.004336	-0.451928	0.892044						
04684														-9.028519	16.901695	0.357724	-0.414348	-0.755489	-0.507495	0.909199	-0.368662	-0.193509	-0.040901	-0.541594	0.839644						
04685														-9.035927	15.834314	0.181267	-0.392198	-0.693569	-0.604271	0.915960	-0.355032	-0.187000	-0.084838	-0.626829	0.774524						
04686														-8.145289	13.549293	-0.024084	-0.366755	-0.619137	-0.694378	0.921580	-0.343840	-0.180176	-0.127201	-0.706005	0.696689						
04687														-7.022096	11.536213	-0.119250	-0.338437	-0.534707	-0.774305	0.925742	-0.336727	-0.172096	-0.168708	-0.775050	0.608962						
04688														-5.756626	9.533882	0.077814	-0.312281	-0.443767	-0.839971	0.926947	-0.335899	-0.167157	-0.207966	-0.830808	0.516244						
04689														-4.061587	7.854457	0.301634	-0.289788	-0.349782	-0.890885	0.925954	-0.337957	-0.168506	-0.242141	-0.873749	0.421818						
04690														-3.057515	6.492210	0.359731	-0.268583	-0.260503	-0.927363	0.924952	-0.338538	-0.172786	-0.268937	-0.904174	0.331878						
04691														-1.731895	5.039058	0.384116	-0.243533	-0.182045	-0.952655	0.925597	-0.337069	-0.172205	-0.289762	-0.923712	0.250588						
04692														-0.799146	3.770428	0.488733	-0.209438	-0.115550	-0.970971	0.928426	-0.335118	-0.160381	-0.306858	-0.935064	0.177466						
04693														-0.826807	2.823205	0.301747	-0.174993	-0.063152	-0.982542	0.932194	-0.331777	-0.144702	-0.316847	-0.941242	0.116928						
04694														-1.014322	2.007469	0.261564	-0.150020	-0.024485	-0.988380	0.935264	-0.327669	-0.133841	-0.320584	-0.944475	0.072057						
04695														-0.773902	1.418296	0.322406	-0.139122	0.001164	-0.990275	0.937261	-0.322651	-0.132053	-0.319666	-0.946517	0.043797						
04696														-0.285851	1.426975	0.410119	-0.137096	0.009032	-0.990517	0.939061	-0.317035	-0.132865	-0.315228	-0.948371	0.034983						
04697														-0.387981	1.786420	0.454909	-0.137945	-0.003945	-0.990432	0.941354	-0.311425	-0.129869	-0.307933	-0.950262	0.046673						
04698														-1.638155	2.355432	0.554736	-0.141867	-0.038332	-0.989143	0.943518	-0.307482	-0.123407	-0.299413	-0.950781	0.079789						
04699														-3.219679	3.069318	0.906519	-0.153248	-0.089593	-0.984118	0.944056	-0.307563	-0.119009	-0.292016	-0.947300	0.131714						
04700														-4.407011	4.182122	1.374154	-0.173408	-0.150001	-0.973360	0.943369	-0.309116	-0.120428	-0.282817	-0.939120	0.195109						
04701														-4.449700	5.230490	1.761037	-0.197736	-0.215172	-0.956348	0.942811	-0.308819	-0.125455	-0.268344	-0.926462	0.263931						
04702														-4.703929	6.239630	2.199385	-0.222929	-0.285358	-0.932134	0.942483	-0.307385	-0.131303	-0.249056	-0.907791	0.337470						
04703														-5.341970	7.956048	2.673546	-0.252621	-0.362576	-0.897063	0.940991	-0.307860	-0.140560	-0.225206	-0.879637	0.418953						
04704														-6.041245	10.000117	2.970320	-0.284118	-0.446877	-0.848279	0.938456	-0.310854	-0.150562	-0.196408	-0.838851	0.507694						
04705														-7.864219	12.101155	2.780104	-0.312847	-0.533823	-0.785596	0.936152	-0.313034	-0.160091	-0.160458	-0.785521	0.597671						
04706														-8.207171	12.895882	2.725991	-0.332934	-0.614731	-0.715025	0.935350	-0.311380	-0.167819	-0.119481	-0.724671	0.678658						
04707														-7.434578	13.607241	2.715383	-0.339983	-0.689468	-0.639567	0.937519	-0.301962	-0.172848	-0.073951	-0.658372	0.749051						
04708														-7.631369	14.534330	2.268131	-0.338694	-0.762387	-0.551409	0.940663	-0.287440	-0.180366	-0.020988	-0.579779	0.814503						
04709														-8.124495	15.628439	1.056530	-0.331463	-0.831096	-0.446555	0.942879	-0.275079	-0.187911	0.033335	-0.483333	0.874802						
04710														-9.290028	16.021439	0.751497	-0.311325	-0.887451	-0.339864	0.947353	-0.261668	-0.184534	0.074833	-0.379421	0.922193						
04711														-10.086395	15.918222	1.296952	-0.287269	-0.927833	-0.237913	0.952024	-0.249222	-0.177591	0.105482	-0.277515	0.954913						
04712														-9.838709	15.276295	1.526505	-0.266985	-0.953604	-0.139135	0.954286	-0.241476	-0.176147	0.134377	-0.179803	0.974481						
04713														-9.420838	13.361022	1.344533	-0.250694	-0.967006	-0.045295	0.954692	-0.239209	-0.177039	0.160363	-0.087625	0.983161						
04714														-9.029169	11.605033	1.488908	-0.239281	-0.970123	0.040087	0.954737	-0.242598	-0.172115	0.176697	-0.002911	0.984261						
04715														-8.333554	10.521338	1.927411	-0.228939	-0.966782	0.113662	0.955779	-0.245389	-0.162083	0.184590	0.071529	0.980209						
04716														-8.005984	9.622556	2.293359	-0.217835	-0.959995	0.175947	0.957172	-0.245361	-0.153684	0.190706	0.134934	0.972329						
04717														-8.435322	8.826220	2.367105	-0.210338	-0.950374	0.229233	0.957281	-0.247808	-0.149009	0.198420	0.188099	0.961898						
04718														-8.677979	7.996120	2.498013	-0.208301	-0.939178	0.273050	0.956368	-0.254059	-0.144273	0.204868	0.231084	0.951120						
04719														-8.440498	7.634558	2.669871	-0.205134	-0.929274	0.307198	0.956245	-0.257190	-0.139460	0.208605	0.265148	0.941372						
04720														-9.229919	7.231028	2.730479	-0.200012	-0.921947	0.331677	0.956843	-0.256634	-0.136347	0.210824	0.290091	0.933488						
04721														-9.861312	7.083777	2.595510	-0.198526	-0.916897	0.346247	0.956770	-0.257919	-0.134418	0.212551	0.304593	0.928464						
04722														-10.070677	7.024049	2.616157	-0.203407	-0.914674	0.349280	0.955575	-0.263181	-0.132713	0.213313	0.306768	0.927573						
04723														-10.036993	7.258821	2.726606	-0.213963	-0.915215	0.341469	0.953706	-0.271345	-0.129678	0.211339	0.297915	0.930904						
04724														-9.416613	8.081713	2.729011	-0.224761	-0.919889	0.321384	0.952306	-0.277229	-0.127507	0.206389	0.277397	0.938325						
04725														-9.286067	9.183375	2.709671	-0.231795	-0.928980	0.288562	0.952007	-0.277592	-0.128938	0.199883	0.244826	0.948740						
04726														-9.247110	9.401685	2.329253	-0.243731	-0.938310	0.245294	0.950629	-0.281229	-0.131201	0.192091	0.201206	0.960530						
04727														-8.337073	9.458638	1.133604	-0.259339	-0.946881	0.190157	0.948418	-0.286862	-0.134957	0.182337	0.145349	0.972433						
04728														-8.021680	10.402490	-0.122489	-0.273133	-0.953973	0.123833	0.946947	-0.289295	-0.140003	0.169383	0.079024	0.982377						
04729														-8.625138	11.968444	-0.388747	-0.291870	-0.955236	0.048337	0.944768	-0.295811	-0.141097	0.149079	0.004485	0.988815						
04730														-8.844510	14.229805	-0.515992	-0.319946	-0.946838	-0.033662	0.939299	-0.312352	-0.141965	0.123903	-0.077040	0.989299						
04731														-9.281029	16.115323	-0.662272	-0.355175	-0.926960	-0.120812	0.929766	-0.336907	-0.148419	0.096876	-0.165041	0.981517						
04732														-10.088232	17.848247	-0.463375	-0.394809	-0.893401	-0.214383	0.916338	-0.365954	-0.162490	0.066714	-0.260600	0.963139						
04733														-9.779369	19.146901	-0.455162	-0.429332	-0.845976	-0.316225	0.902510	-0.388726	-0.185386	0.033907	-0.364988	0.930394						
04734														-8.623903	18.787462	-0.756173	-0.445046	-0.789820	-0.422041	0.895506	-0.393534	-0.207848	-0.001925	-0.470443	0.882429						
04735														-8.642018	17.750719	-0.656280	-0.438524	-0.730345	-0.523730	0.897664	-0.384189	-0.215867	-0.043553	-0.564796	0.824080						
04736														-9.184574	16.710916	-0.138470	-0.416788	-0.665762	-0.618909	0.904465	-0.371691	-0.209259	-0.090726	-0.646998	0.757075						
04737														-8.528282	15.116462	0.020160	-0.382700	-0.592194	-0.709117	0.913438	-0.357572	-0.194355	-0.138465	-0.722114	0.677775						
04738														-7.187090	12.682328	0.043743	-0.341124	-0.509267	-0.790115	0.922040	-0.344877	-0.175792	-0.182967	-0.788484	0.587210						
04739														-5.992207	10.205291	0.301883	-0.304049	-0.418428	-0.855846	0.926050	-0.340651	-0.162443	-0.223574	-0.841947	0.491060						
04740														-4.541176	8.510571	0.369750	-0.277334	-0.323368	-0.904720	0.925449	-0.342902	-0.161127	-0.258127	-0.881959	0.394359						
04741														-2.395005	6.843633	0.387815	-0.255155	-0.230798	-0.938951	0.923701	-0.345206	-0.166158	-0.285783	-0.909706	0.301269						
04742														-0.853005	5.174628	0.491069	-0.229040	-0.149161	-0.961921	0.923162	-0.346697	-0.166051	-0.308727	-0.926041	0.217107						
04743														-0.031288	3.760244	0.800494	-0.199752	-0.082531	-0.976365	0.923431	-0.349089	-0.159414	-0.327682	-0.933448	0.145943						
04744														0.533530	2.963907	0.983328	-0.173425	-0.030137	-0.984386	0.924147	-0.350462	-0.152083	-0.340407	-0.936092	0.088630						
04745														1.009522	2.396268	0.975406	-0.154981	0.008044	-0.987885	0.925838	-0.347701	-0.148078	-0.344680	-0.937571	0.046440						
04746														1.149448	2.129334	0.841777	-0.147370	0.029045	-0.988655	0.928029	-0.341683	-0.148371	-0.342116	-0.939366	0.023400						
04747														1.361470	2.107146	0.626542	-0.149934	0.029185	-0.988265	0.929934	-0.335299	-0.150987	-0.335771	-0.941660	0.023132						
04748														1.080303	2.914527	0.847229	-0.157243	0.003634	-0.987553	0.931365	-0.331970	-0.149518	-0.328381	-0.943283	0.048816						
04749														-0.165910	4.262936	0.851215	-0.167984	-0.052426	-0.984395	0.933662	-0.328883	-0.141811	-0.316316	-0.942914	0.104195						
04750														-1.769531	4.783634	0.953749	-0.177445	-0.132736	-0.975138	0.936237	-0.328116	-0.125703	-0.303273	-0.935265	0.182494						
04751														-3.821779	5.877519	1.865182	-0.186729	-0.223233	-0.956713	0.938371	-0.328839	-0.106420	-0.290848	-0.917623	0.270879						
04752														-6.167376	7.950105	2.548213	-0.208958	-0.314376	-0.926015	0.939807	-0.326352	-0.101276	-0.270368	-0.891438	0.363647						
04753														-8.210075	9.971871	2.659784	-0.252043	-0.402607	-0.879990	0.938153	-0.324707	-0.120144	-0.237368	-0.855846	0.459547						
04754														-7.300674	11.474382	2.643665	-0.297275	-0.485752	-0.821993	0.933720	-0.327775	-0.143985	-0.199488	-0.810314	0.550995						
04755														-6.912277	12.953878	2.903651	-0.322753	-0.568327	-0.756859	0.932985	-0.325608	-0.153361	-0.159280	-0.755635	0.635331						
04756														-7.592704	14.044015	3.095717	-0.336070	-0.651526	-0.680126	0.935447	-0.314876	-0.160597	-0.109522	-0.690194	0.715288						
04757														-8.168376	14.615823	2.795134	-0.343354	-0.731450	-0.589142	0.937831	-0.300948	-0.172928	-0.050812	-0.611891	0.789308						
04758														-8.857642	15.021521	2.003903	-0.341394	-0.804184	-0.486558	0.939867	-0.286567	-0.185820	0.010002	-0.520738	0.853658						
04759														-9.072755	15.039156	1.699989	-0.327428	-0.865542	-0.378983	0.942613	-0.271477	-0.194371	0.065351	-0.420877	0.904761						
04760														-10.029782	15.039738	1.352910	-0.308375	-0.912737	-0.267983	0.944168	-0.259332	-0.203207	0.115978	-0.315685	0.941749						
04761														-10.436459	14.530317	1.193666	-0.289023	-0.943522	-0.161962	0.943955	-0.252706	-0.212339	0.159418	-0.214256	0.963681						
04762														-9.920545	13.078884	1.064132	-0.270142	-0.960272	-0.070014	0.943154	-0.249301	-0.219793	0.193606	-0.125409	0.973031						
04763														-9.180203	11.885312	0.898433	-0.248810	-0.968514	0.008614	0.943645	-0.244406	-0.223160	0.218239	-0.047396	0.974744						
04764														-8.654803	10.855731	0.917751	-0.225318	-0.971256	0.076766	0.946144	-0.236930	-0.220625	0.232472	0.022921	0.972333						
04765														-8.450201	9.537422	1.102224	-0.201768	-0.970167	0.134410	0.950293	-0.227139	-0.212960	0.237136	0.084761	0.967772						
04766														-8.529876	8.762677	1.441047	-0.180717	-0.966546	0.182019	0.954957	-0.216722	-0.202702	0.235368	0.137189	0.962175						
04767														-8.474674	8.522211	1.505747	-0.163073	-0.961568	0.220895	0.958897	-0.207165	-0.193906	0.232216	0.180194	0.955827						
04768														-8.583335	8.434495	1.627442	-0.149681	-0.955598	0.253825	0.962301	-0.199761	-0.184589	0.227097	0.216626	0.949473						
04769														-8.235127	8.051683	1.962934	-0.130288	-0.950798	0.281085	0.967620	-0.183752	-0.173050	0.216185	0.249437	0.943952						
04770														-10.341358	7.696299	2.093424	-0.098925	-0.948878	0.299741	0.975213	-0.152358	-0.160460	0.197925	0.276438	0.940430						
04771														-12.784990	7.051009	2.530437	-0.078806	-0.949746	0.302939	0.980755	-0.128316	-0.147154	0.178631	0.285512	0.941580						
04772														-12.031259	6.702924	2.675329	-0.083814	-0.954114	0.287475	0.982916	-0.126598	-0.133598	0.163861	0.271367	0.948425						
04773														-9.966488	7.179030	2.755619	-0.106649	-0.960175	0.258245	0.982411	-0.141797	-0.121498	0.153278	0.240745	0.958409						
04774														-9.125495	8.896295	3.048402	-0.139191	-0.964093	0.226163	0.979682	-0.167365	-0.110506	0.144390	0.206186	0.967801						
04775														-8.766705	10.700355	2.931746	-0.173345	-0.965941	0.192119	0.975045	-0.195793	-0.104650	0.138702	0.169184	0.975776						
04776														-7.974786	11.592109	2.125343	-0.194500	-0.969899	0.146512	0.971131	-0.211432	-0.110455	0.138107	0.120799	0.983023						
04777														-7.502411	11.462050	0.558432	-0.199315	-0.976082	0.086817	0.969393	-0.209356	-0.128244	0.143352	0.058599	0.987935						
04778														-9.016930	11.400095	-0.577419	-0.210775	-0.977290	0.021867	0.966411	-0.211689	-0.145732	0.147051	-0.009584	0.989082						
04779														-10.885387	13.018287	-0.352975	-0.256519	-0.965684	-0.040655	0.956449	-0.247555	-0.154668	0.139296	-0.078560	0.987130						
04780														-10.805059	15.154631	0.179800	-0.330128	-0.937458	-0.110398	0.935952	-0.309909	-0.167185	0.122516	-0.158519	0.979725						
04781														-8.825299	16.114502	0.213050	-0.405044	-0.893267	-0.194972	0.908070	-0.368184	-0.199625	0.106533	-0.257905	0.960279						
04782														-6.867019	15.686091	-0.132971	-0.455767	-0.842629	-0.286798	0.885751	-0.397542	-0.239594	0.087875	-0.363231	0.927546						
04783														-6.760164	14.915598	0.243129	-0.480658	-0.791684	-0.377100	0.875038	-0.404952	-0.265182	0.057233	-0.457439	0.887397						
04784														-7.037472	14.645378	0.344071	-0.483803	-0.740659	-0.466218	0.874993	-0.398418	-0.275047	0.017967	-0.541006	0.840827						
04785														-7.617425	13.595283	0.142865	-0.471305	-0.686125	-0.554170	0.881658	-0.383239	-0.275331	-0.023468	-0.618353	0.785550						
04786														-7.812153	12.336404	0.215189	-0.456159	-0.620829	-0.637565	0.887514	-0.369792	-0.274906	-0.065097	-0.691249	0.719679						
04787														-6.973293	11.309237	0.258328	-0.444919	-0.545183	-0.710509	0.889368	-0.362180	-0.279015	-0.105218	-0.756043	0.646010						
04788														-5.261957	10.159774	0.042704	-0.430393	-0.467993	-0.771845	0.891490	-0.354388	-0.282232	-0.141450	-0.809562	0.569737						
04789														-4.443850	8.430874	0.098165	-0.408207	-0.395527	-0.822755	0.896207	-0.345143	-0.278728	-0.173724	-0.851137	0.495364						
04790														-4.219186	6.967560	0.513515	-0.385424	-0.328030	-0.862464	0.900559	-0.337429	-0.274110	-0.201104	-0.882348	0.425464						
04791														-3.214549	5.877787	0.878807	-0.367298	-0.264601	-0.891672	0.903138	-0.330632	-0.273907	-0.222339	-0.905908	0.360412						
04792														-1.834459	5.029006	0.739276	-0.348993	-0.207732	-0.913812	0.906730	-0.321188	-0.273274	-0.236738	-0.923951	0.300449						
04793														-0.388078	4.025525	0.546259	-0.323227	-0.164522	-0.931910	0.913783	-0.310275	-0.262163	-0.246017	-0.936302	0.250627						
04794														-0.660480	3.622004	0.708330	-0.292112	-0.139313	-0.946183	0.922205	-0.303153	-0.240074	-0.253393	-0.942703	0.217030						
04795														-1.246072	3.900228	1.095673	-0.267767	-0.128809	-0.954835	0.928156	-0.300385	-0.219763	-0.258511	-0.945081	0.199988						
04796														-1.926673	4.683514	1.350328	-0.256223	-0.130164	-0.957814	0.931611	-0.297505	-0.208784	-0.257779	-0.945805	0.197490						
04797														-1.900927	5.031993	1.274949	-0.254766	-0.143562	-0.956287	0.934022	-0.292601	-0.204908	-0.250393	-0.945397	0.208635						
04798														-2.016013	5.203098	1.159718	-0.253611	-0.173001	-0.951710	0.937183	-0.287567	-0.197466	-0.239519	-0.942006	0.235063						
04799														-2.951473	5.551894	1.347798	-0.252547	-0.217923	-0.942724	0.940541	-0.284028	-0.186306	-0.227160	-0.933722	0.276696						
04800														-3.068455	6.018926	1.432742	-0.253444	-0.274988	-0.927442	0.943946	-0.279923	-0.174956	-0.211501	-0.919796	0.330518						
04801														-3.366869	6.510960	1.537928	-0.253152	-0.343514	-0.904385	0.947915	-0.274883	-0.160927	-0.193319	-0.898019	0.395209						
04802														-4.734280	7.056883	2.105318	-0.259770	-0.418446	-0.870300	0.949997	-0.272452	-0.152562	-0.173276	-0.866414	0.468297						
04803														-5.638652	8.727017	2.348794	-0.277668	-0.496331	-0.822530	0.948896	-0.275372	-0.154161	-0.149987	-0.823302	0.547429						
04804														-6.660521	10.923086	2.378260	-0.297371	-0.574663	-0.762452	0.946956	-0.279432	-0.158722	-0.121842	-0.769207	0.627276						
04805														-7.410966	12.588359	2.493758	-0.313972	-0.648365	-0.693574	0.945319	-0.281411	-0.164866	-0.088286	-0.707412	0.701266						
04806														-7.458528	13.435769	2.345551	-0.325956	-0.716574	-0.616665	0.944026	-0.281669	-0.171689	-0.050668	-0.638111	0.768276						
04807														-7.000683	14.531690	1.731918	-0.328029	-0.781248	-0.531082	0.944608	-0.277586	-0.175105	-0.010620	-0.559104	0.829029						
04808														-7.676465	15.344260	1.051487	-0.313823	-0.843166	-0.436561	0.949089	-0.265348	-0.169767	0.027301	-0.467612	0.883512						
04809														-9.280976	15.830519	0.929542	-0.292711	-0.895631	-0.334912	0.954305	-0.251578	-0.161280	0.060191	-0.366817	0.928344						
04810														-10.785020	15.680126	0.838559	-0.275229	-0.932951	-0.232060	0.956968	-0.242771	-0.158976	0.091979	-0.265829	0.959622						
04811														-11.359156	14.169435	0.588676	-0.264410	-0.954917	-0.134984	0.956593	-0.241899	-0.162527	0.122548	-0.172099	0.977427						
04812														-12.058546	12.347877	0.794163	-0.259366	-0.964499	-0.049708	0.954298	-0.248030	-0.166723	0.148475	-0.090678	0.984750						
04813														-12.103192	10.565000	1.532450	-0.260946	-0.965159	0.019372	0.949899	-0.260293	-0.173030	0.172044	-0.026750	0.984726						
04814														-10.793700	8.242630	2.038350	-0.257163	-0.963655	0.072365	0.947414	-0.266169	-0.177655	0.190459	0.022873	0.981429						
04815														-10.287932	6.553775	2.665558	-0.242295	-0.963298	0.115544	0.949579	-0.259881	-0.175390	0.198980	0.067223	0.977695						
04816														-10.757499	5.964222	3.343109	-0.224054	-0.962774	0.151214	0.953611	-0.248590	-0.169791	0.201061	0.106157	0.973810						
04817														-11.228362	5.385984	3.670344	-0.212508	-0.960655	0.178834	0.956121	-0.242193	-0.164847	0.201673	0.135956	0.969971						
04818														-11.439511	5.053916	3.930470	-0.210551	-0.957989	0.194745	0.956613	-0.242945	-0.160839	0.201394	0.152431	0.967577						
04819														-10.901046	4.953664	3.801630	-0.214760	-0.956512	0.197391	0.955901	-0.247311	-0.158399	0.200327	0.154668	0.967443						
04820														-10.670246	5.369626	3.799472	-0.224646	-0.955991	0.188718	0.954219	-0.255069	-0.156223	0.197484	0.144984	0.969526						
04821														-10.172368	6.222487	3.828267	-0.240509	-0.955639	0.170027	0.951358	-0.266833	-0.154009	0.192545	0.124716	0.973331						
04822														-9.550763	7.695965	3.730436	-0.254812	-0.956458	0.142333	0.948893	-0.275663	-0.153660	0.186205	0.095904	0.977819						
04823														-9.220441	9.499503	3.313089	-0.259071	-0.960112	0.105200	0.949123	-0.273255	-0.156515	0.179019	0.059299	0.982057						
04824														-9.498313	11.083799	2.787207	-0.252916	-0.965660	0.059444	0.952127	-0.259335	-0.161865	0.171722	0.015660	0.985021						
04825														-9.378962	12.038794	1.990702	-0.241909	-0.970283	0.005566	0.956031	-0.239328	-0.169492	0.165788	-0.035681	0.985516						
04826														-8.475559	12.095105	0.717656	-0.226139	-0.972265	-0.059682	0.961000	-0.212667	-0.176782	0.159187	-0.097332	0.982439						
04827														-8.762369	11.884595	-0.170912	-0.213890	-0.967694	-0.133488	0.965743	-0.188918	-0.177905	0.146940	-0.166967	0.974952						
04828														-9.844527	12.855824	0.162266	-0.226306	-0.952087	-0.205708	0.965734	-0.191764	-0.174885	0.127058	-0.238237	0.962860						
04829														-8.794327	13.706068	0.261409	-0.261741	-0.923999	-0.278777	0.959607	-0.218269	-0.177518	0.103178	-0.313980	0.943806						
04830														-7.662611	13.830630	-0.035520	-0.303986	-0.884619	-0.353612	0.949261	-0.249854	-0.190990	0.080602	-0.393728	0.915686						
04831														-7.756384	14.032307	0.078356	-0.345022	-0.836358	-0.425986	0.936889	-0.279531	-0.210006	0.056564	-0.471558	0.880019						
04832														-8.128896	14.391804	0.619600	-0.385445	-0.779617	-0.493589	0.922310	-0.309357	-0.231609	0.027871	-0.544514	0.838288						
04833														-7.566312	14.052781	0.707645	-0.417942	-0.716394	-0.558663	0.908471	-0.331022	-0.255156	-0.002138	-0.614170	0.789171						
04834														-6.567649	12.548597	0.502921	-0.430791	-0.650657	-0.625352	0.901796	-0.336778	-0.270822	-0.034393	-0.680607	0.731841						
04835														-6.001824	10.732251	0.760833	-0.423805	-0.584570	-0.691858	0.902999	-0.332212	-0.272447	-0.070579	-0.740212	0.668659						
04836														-5.400226	10.024137	1.241633	-0.405520	-0.520011	-0.751759	0.907796	-0.325419	-0.264590	-0.107047	-0.789741	0.604028						
04837														-5.028575	9.068971	1.365880	-0.379810	-0.458330	-0.803541	0.914478	-0.317061	-0.251399	-0.139548	-0.830305	0.539556						
04838														-5.366114	7.904104	1.226292	-0.357305	-0.395376	-0.846174	0.919403	-0.308371	-0.244140	-0.164408	-0.865208	0.473693						
04839														-5.027529	6.709782	0.993580	-0.346504	-0.329056	-0.878440	0.920394	-0.300087	-0.250644	-0.181132	-0.895360	0.406843						
04840														-3.643903	5.633951	0.843837	-0.342418	-0.262979	-0.901993	0.919543	-0.290856	-0.264280	-0.192850	-0.919916	0.341415						
04841														-2.678195	4.723814	0.664494	-0.336513	-0.206579	-0.918740	0.920194	-0.279354	-0.274233	-0.200003	-0.937703	0.284099						
04842														-2.309918	3.758239	0.562897	-0.325466	-0.163956	-0.931231	0.923409	-0.267010	-0.275721	-0.203442	-0.949644	0.238301						
04843														-2.067120	2.870593	0.491783	-0.311651	-0.135446	-0.940494	0.928352	-0.254418	-0.270987	-0.202575	-0.957562	0.205032						
04844														-1.822784	2.056985	0.427754	-0.296855	-0.120128	-0.947336	0.934070	-0.242716	-0.261920	-0.198470	-0.962631	0.184259						
04845														-1.782979	1.488955	0.342784	-0.283384	-0.118337	-0.951677	0.939619	-0.232791	-0.250847	-0.191858	-0.965300	0.177161						
04846														-2.272256	1.150682	0.682043	-0.278702	-0.127593	-0.951864	0.942704	-0.225616	-0.245777	-0.183396	-0.965825	0.183162						
04847														-2.093825	1.279011	1.160870	-0.293353	-0.145456	-0.944874	0.940553	-0.220892	-0.258007	-0.171187	-0.964391	0.201608						
04848														-0.949189	2.481164	1.602694	-0.314893	-0.181093	-0.931691	0.936258	-0.220366	-0.273604	-0.155765	-0.958459	0.238941						
04849														-1.549009	4.331444	2.105595	-0.331913	-0.241216	-0.911948	0.933399	-0.223754	-0.280536	-0.136382	-0.944325	0.299418						
04850														-3.719265	6.181283	2.595769	-0.349205	-0.320096	-0.880678	0.930397	-0.230207	-0.285247	-0.111432	-0.918991	0.378205						
04851														-5.640676	7.783837	2.853437	-0.369820	-0.405756	-0.835820	0.925385	-0.241270	-0.292322	-0.083046	-0.881562	0.464706						
04852														-6.442321	9.247816	3.160617	-0.389695	-0.487354	-0.781424	0.919311	-0.256369	-0.298568	-0.054824	-0.834722	0.547936						
04853														-7.856837	10.977334	3.471047	-0.406604	-0.562776	-0.719692	0.913216	-0.273336	-0.302199	-0.026648	-0.780110	0.625075						
04854														-8.719416	12.316364	3.819793	-0.425474	-0.632027	-0.647699	0.904964	-0.294448	-0.307148	0.003412	-0.716828	0.697242						
04855														-7.618257	13.083526	3.982811	-0.438796	-0.692709	-0.572375	0.897981	-0.314660	-0.307601	0.032974	-0.648956	0.760111						
04856														-6.589584	13.472665	4.035592	-0.435810	-0.748505	-0.499810	0.897785	-0.322253	-0.300226	0.063655	-0.579563	0.812438						
04857														-6.586926	13.715542	3.594769	-0.416781	-0.803621	-0.424838	0.903663	-0.315692	-0.289364	0.098422	-0.504512	0.857777						
04858														-7.609259	13.562002	2.976652	-0.389732	-0.854380	-0.343721	0.911340	-0.304086	-0.277474	0.132548	-0.421387	0.897142						
04859														-7.823676	13.183637	2.528709	-0.359382	-0.895873	-0.261257	0.919104	-0.291343	-0.265268	0.161531	-0.335455	0.928104						
04860														-7.706484	12.396916	2.331273	-0.326368	-0.927545	-0.182058	0.927213	-0.276709	-0.252404	0.183739	-0.251183	0.950341						
04861														-7.525337	11.573886	2.292435	-0.294536	-0.949890	-0.104676	0.934256	-0.263170	-0.240638	0.201032	-0.168671	0.964954						
04862														-7.150256	11.003968	2.287818	-0.267746	-0.963054	-0.028983	0.939242	-0.254184	-0.230682	0.214793	-0.088986	0.972597						
04863														-6.378577	10.630272	2.052929	-0.244247	-0.968700	0.044310	0.942789	-0.247910	-0.222913	0.226921	-0.012671	0.973831						
04864														-6.119484	9.543851	1.836597	-0.221944	-0.968240	0.115114	0.946044	-0.242420	-0.215021	0.236098	0.061180	0.969801						
04865														-6.835370	9.075056	2.230108	-0.207198	-0.960809	0.184162	0.948308	-0.243510	-0.203507	0.240376	0.132476	0.961597						
04866														-8.131105	8.935249	2.869418	-0.206692	-0.946579	0.247522	0.947782	-0.256509	-0.189505	0.242873	0.195428	0.950169						
04867														-8.663421	8.682980	3.270449	-0.216798	-0.929264	0.299111	0.945095	-0.276541	-0.174130	0.244529	0.244937	0.938196						
04868														-8.387256	8.431700	3.983831	-0.224482	-0.915475	0.333937	0.943866	-0.289483	-0.159112	0.242332	0.279474	0.929069						
04869														-8.717358	8.644941	4.579676	-0.224773	-0.908265	0.352892	0.945443	-0.290936	-0.146610	0.235830	0.300685	0.924106						
04870														-9.391714	9.042320	4.632039	-0.224320	-0.905428	0.360390	0.946744	-0.290135	-0.139632	0.230988	0.309875	0.922292						
04871														-9.772424	8.806623	4.411281	-0.229363	-0.905709	0.356488	0.946608	-0.292812	-0.134888	0.226553	0.306516	0.924511						
04872														-9.438652	8.388313	4.235577	-0.239512	-0.910330	0.337540	0.946132	-0.296859	-0.129259	0.217870	0.288399	0.932394						
04873														-8.439005	8.763216	4.049989	-0.250807	-0.919294	0.303306	0.945796	-0.299482	-0.125616	0.206313	0.255360	0.944577						
04874														-7.734916	9.932082	3.874635	-0.266879	-0.928051	0.259800	0.943720	-0.306311	-0.124762	0.195365	0.211882	0.957569						
04875														-8.047421	11.480647	4.096896	-0.300096	-0.929672	0.213664	0.935123	-0.330945	-0.126571	0.188381	0.161818	0.968673						
04876														-7.592757	12.459918	3.909042	-0.354692	-0.919985	0.166799	0.915742	-0.377826	-0.136615	0.188704	0.104289	0.976481						
04877														-6.253882	13.098800	3.169969	-0.411165	-0.904275	0.115020	0.890239	-0.425469	-0.162634	0.196004	0.035526	0.979959						
04878														-4.616503	12.532556	1.787458	-0.449173	-0.891871	0.053007	0.870038	-0.450126	-0.201047	0.203168	-0.044187	0.978146						
04879														-4.889089	11.703465	0.936285	-0.464106	-0.885580	-0.018803	0.862956	-0.447258	-0.235091	0.199782	-0.125333	0.971792						
04880														-6.634168	12.675401	1.382852	-0.474681	-0.875409	-0.091306	0.860718	-0.440010	-0.256037	0.183962	-0.200125	0.962345						
04881														-6.444141	14.396976	1.237300	-0.489804	-0.856559	-0.162475	0.856229	-0.437511	-0.274693	0.164206	-0.273661	0.947706						
04882														-6.403392	14.222560	0.676939	-0.503321	-0.831326	-0.235724	0.852013	-0.431988	-0.295737	0.144024	-0.349690	0.925729						
04883														-6.980324	13.310924	0.544833	-0.512247	-0.799905	-0.312657	0.850717	-0.422642	-0.312496	0.117825	-0.426057	0.896991						
04884														-7.216754	13.172301	1.108175	-0.520261	-0.758996	-0.391476	0.850022	-0.415986	-0.323139	0.082413	-0.500879	0.861585						
04885														-6.598385	13.265006	1.293700	-0.525763	-0.708977	-0.470028	0.849469	-0.408728	-0.333684	0.044461	-0.574712	0.817147						
04886														-5.978842	12.197400	0.904724	-0.524407	-0.653361	-0.546001	0.851434	-0.396703	-0.343054	0.007538	-0.644784	0.764328						
04887														-6.048604	10.991984	0.846008	-0.515496	-0.594770	-0.616857	0.856289	-0.384563	-0.344791	-0.032149	-0.705946	0.707536						
04888														-6.060289	10.442372	0.966244	-0.503654	-0.533327	-0.679629	0.860866	-0.375761	-0.343093	-0.072397	-0.757870	0.648377						
04889														-5.685360	9.419516	0.888818	-0.489836	-0.469951	-0.734307	0.864982	-0.367221	-0.341987	-0.108936	-0.802680	0.586377						
04890														-4.845914	7.956102	0.782776	-0.473931	-0.406971	-0.780874	0.869124	-0.358657	-0.340570	-0.141464	-0.840083	0.523687						
04891														-4.201005	6.617396	0.597600	-0.454070	-0.348669	-0.819909	0.874641	-0.349792	-0.335631	-0.169774	-0.869526	0.463790						
04892														-4.309352	5.480038	0.516188	-0.432882	-0.298492	-0.850597	0.880504	-0.342235	-0.328005	-0.193197	-0.890942	0.410971						
04893														-3.911263	4.294813	0.553264	-0.413227	-0.254728	-0.874275	0.885437	-0.336652	-0.320416	-0.212708	-0.906520	0.364659						
04894														-3.599098	3.396799	0.685774	-0.395806	-0.216991	-0.892330	0.889434	-0.332430	-0.313683	-0.228571	-0.917826	0.324577						
04895														-2.701632	2.572657	0.728144	-0.378284	-0.187066	-0.906591	0.893669	-0.329162	-0.304973	-0.241365	-0.925559	0.291692						
04896														-2.565713	1.957753	0.714447	-0.360125	-0.167960	-0.917660	0.898699	-0.326377	-0.292947	-0.250300	-0.930197	0.268482						
04897														-2.262031	1.366167	0.715080	-0.344767	-0.161703	-0.924656	0.903395	-0.324730	-0.280051	-0.254978	-0.931881	0.258038						
04898														-2.168621	0.902524	0.771924	-0.333122	-0.169886	-0.927453	0.907278	-0.325511	-0.266250	-0.256664	-0.930151	0.262569						
04899														-2.115318	0.654527	1.039720	-0.324759	-0.191939	-0.926116	0.910114	-0.329848	-0.250786	-0.257342	-0.924316	0.281807						
04900														-3.090421	1.137239	1.526724	-0.323815	-0.227637	-0.918327	0.910880	-0.337450	-0.237541	-0.255817	-0.913405	0.316621						
04901														-4.381838	2.306242	1.932643	-0.332489	-0.274920	-0.902147	0.909072	-0.348083	-0.228967	-0.251074	-0.896246	0.365656						
04902														-5.774029	3.589024	2.206766	-0.349679	-0.328594	-0.877354	0.905293	-0.359592	-0.226137	-0.241182	-0.873338	0.423215						
04903														-6.223790	4.500971	2.456028	-0.370480	-0.382068	-0.846622	0.900732	-0.370317	-0.227040	-0.226774	-0.846693	0.481336						
04904														-5.321112	5.426972	2.932588	-0.387154	-0.435034	-0.812932	0.898163	-0.377193	-0.225893	-0.208361	-0.817601	0.536763						
04905														-4.908060	7.731080	3.123565	-0.395221	-0.497890	-0.771950	0.900731	-0.374940	-0.219326	-0.180235	-0.782001	0.596649						
04906														-5.895347	10.309268	2.753918	-0.397330	-0.577264	-0.713369	0.907934	-0.360254	-0.214177	-0.133357	-0.732791	0.667258						
04907														-6.636620	10.686429	1.804792	-0.396496	-0.663214	-0.634774	0.915084	-0.340927	-0.215383	-0.073567	-0.666271	0.742072						
04908														-6.666922	10.045469	1.155854	-0.390031	-0.734973	-0.554699	0.920449	-0.327864	-0.212787	-0.025473	-0.593566	0.804382						
04909														-6.610450	11.156157	1.682816	-0.382866	-0.787456	-0.483040	0.923785	-0.322984	-0.205676	0.005947	-0.524971	0.851099						
04910														-5.343705	13.436030	2.336630	-0.381488	-0.827520	-0.411919	0.923656	-0.323686	-0.205153	0.036435	-0.458735	0.887826						
04911														-4.244597	15.101687	2.830780	-0.385195	-0.860376	-0.333734	0.919866	-0.328982	-0.213581	0.073967	-0.389261	0.918153						
04912														-3.338435	16.066551	2.908219	-0.386146	-0.888219	-0.248916	0.915252	-0.335307	-0.223346	0.114916	-0.314065	0.942421						
04913														-2.938120	15.656222	2.201310	-0.372314	-0.913493	-0.164050	0.915192	-0.331968	-0.228517	0.154289	-0.235218	0.959618						
04914														-3.441650	13.941330	1.479897	-0.339839	-0.936668	-0.084634	0.921912	-0.313981	-0.226924	0.185979	-0.155143	0.970228						
04915														-4.058177	12.661401	1.179490	-0.298178	-0.954463	-0.009538	0.931666	-0.288854	-0.220365	0.207575	-0.074595	0.975371						
04916														-4.828089	11.664419	1.419779	-0.260001	-0.963568	0.062731	0.940042	-0.267433	-0.211660	0.220725	0.003938	0.975328						
04917														-5.159522	11.062554	1.839103	-0.237514	-0.962250	0.132898	0.943810	-0.260968	-0.202778	0.229805	0.077268	0.970165						
04918														-4.756607	11.131321	2.015448	-0.230057	-0.952441	0.199825	0.943348	-0.268701	-0.194664	0.239099	0.143721	0.960300						
04919														-3.919597	11.158946	1.800384	-0.223600	-0.938918	0.261601	0.942104	-0.277007	-0.188962	0.249886	0.204203	0.946498						
04920														-3.508016	10.993297	1.561566	-0.207866	-0.925537	0.316501	0.943110	-0.275474	-0.186163	0.259488	0.259799	0.930145						
04921														-3.817480	10.756891	1.441687	-0.179861	-0.913918	0.363874	0.947671	-0.260169	-0.185019	0.263761	0.311555	0.912888						
04922														-4.411184	10.390572	1.402933	-0.143437	-0.904032	0.402682	0.954823	-0.233421	-0.183925	0.260268	0.358108	0.896671						
04923														-5.369975	9.930385	1.583151	-0.106584	-0.895279	0.432568	0.962322	-0.202333	-0.181651	0.250151	0.396909	0.883112						
04924														-6.289650	9.446030	2.041497	-0.077309	-0.887848	0.453596	0.968587	-0.174735	-0.176936	0.236352	0.425669	0.873467						
04925														-6.544057	9.425485	2.283645	-0.059784	-0.882794	0.465940	0.972829	-0.156118	-0.170968	0.223671	0.443059	0.868142						
04926														-6.424109	9.269456	2.452057	-0.049917	-0.882586	0.467493	0.975700	-0.143081	-0.165943	0.213348	0.447849	0.868282						
04927														-6.321522	9.006609	2.753260	-0.044300	-0.887704	0.458279	0.977890	-0.132375	-0.161887	0.204372	0.440975	0.873941						
04928														-6.305862	8.820075	2.997931	-0.044128	-0.896546	0.440747	0.979244	-0.126178	-0.158622	0.197824	0.424599	0.883505						
04929														-6.225551	8.858984	2.952902	-0.050651	-0.907827	0.416276	0.979770	-0.125970	-0.155505	0.193610	0.399978	0.895842						
04930														-6.505975	8.986903	3.011339	-0.066202	-0.920851	0.384253	0.979583	-0.133243	-0.150541	0.189825	0.366442	0.910872						
04931														-6.178154	9.649643	3.191211	-0.089778	-0.935104	0.342812	0.978184	-0.147531	-0.146255	0.187340	0.322202	0.927949						
04932														-5.639142	10.492231	3.192800	-0.114978	-0.949323	0.292516	0.975748	-0.163148	-0.145941	0.186269	0.268642	0.945058						
04933														-5.460413	11.166113	2.980439	-0.137337	-0.962009	0.235962	0.972911	-0.175736	-0.150205	0.185966	0.208941	0.960084						
04934														-4.886626	11.409524	2.398723	-0.154473	-0.972946	0.171799	0.970079	-0.182327	-0.160325	0.187311	0.141893	0.971999						
04935														-4.678240	10.975452	1.733863	-0.168196	-0.980707	0.099620	0.967646	-0.183542	-0.173126	0.188071	0.067278	0.979849						
04936														-5.176648	10.838404	1.309762	-0.185327	-0.982372	0.024495	0.965365	-0.186664	-0.182284	0.183643	-0.010136	0.982941						
04937														-5.692093	11.395255	1.209849	-0.211293	-0.976291	-0.047017	0.961820	-0.199118	-0.187760	0.173947	-0.084894	0.981089						
04938														-5.394440	12.156551	0.725801	-0.241421	-0.963468	-0.115952	0.956900	-0.216476	-0.193601	0.161428	-0.157693	0.974204						
04939														-5.292016	12.278377	0.408802	-0.268837	-0.945253	-0.184996	0.951795	-0.231261	-0.201503	0.147689	-0.230250	0.961859						
04940														-7.144503	13.010713	0.688644	-0.301559	-0.920525	-0.248389	0.944738	-0.253355	-0.208041	0.128577	-0.297399	0.946056						
04941														-7.775360	13.492999	0.718253	-0.344963	-0.886209	-0.309248	0.932989	-0.287725	-0.216207	0.102626	-0.363109	0.926078						
04942														-7.290459	13.453059	0.506695	-0.386544	-0.843058	-0.373948	0.919119	-0.318645	-0.231701	0.076180	-0.433265	0.898041						
04943														-7.273093	12.267349	0.343260	-0.416834	-0.793800	-0.442866	0.907679	-0.337414	-0.249540	0.048656	-0.505997	0.861162						
04944														-7.946545	11.336045	0.800876	-0.442388	-0.738328	-0.509082	0.896725	-0.355735	-0.263318	0.013317	-0.572995	0.819450						
04945														-8.253790	11.159145	1.210676	-0.466384	-0.677591	-0.568644	0.884122	-0.377810	-0.274933	-0.028547	-0.630975	0.775278						
04946														-8.345027	10.932253	1.432066	-0.482977	-0.615049	-0.623256	0.872945	-0.393930	-0.287725	-0.068554	-0.683033	0.727163						
04947														-8.312323	10.139526	1.733291	-0.482714	-0.553573	-0.678634	0.869213	-0.397535	-0.293997	-0.107032	-0.731794	0.673069						
04948														-8.873406	9.247601	2.289911	-0.466835	-0.491346	-0.735285	0.872470	-0.391685	-0.292195	-0.144431	-0.777921	0.611538						
04949														-8.721773	8.681382	2.186256	-0.443254	-0.426133	-0.788630	0.878502	-0.381419	-0.287669	-0.178214	-0.820323	0.543424						
04950														-8.357633	7.957025	1.622464	-0.412677	-0.359040	-0.837131	0.886786	-0.368333	-0.279179	-0.208106	-0.857567	0.470394						
04951														-7.804769	7.141102	1.581953	-0.371892	-0.290698	-0.881584	0.897530	-0.355002	-0.261559	-0.236929	-0.888520	0.392933						
04952														-7.343458	6.223180	1.387829	-0.321939	-0.223811	-0.919926	0.909814	-0.341925	-0.235213	-0.261903	-0.912686	0.313706						
04953														-6.555442	5.231184	1.024677	-0.268586	-0.158260	-0.950166	0.921163	-0.330608	-0.205321	-0.281638	-0.930404	0.234580						
04954														-5.086726	3.936961	0.635388	-0.217084	-0.095969	-0.971424	0.930657	-0.320620	-0.176299	-0.294538	-0.942334	0.158915						
04955														-4.195490	2.802123	0.464085	-0.169342	-0.039983	-0.984746	0.938498	-0.311606	-0.148737	-0.300906	-0.949370	0.090292						
04956														-3.501805	1.684391	0.439252	-0.132349	0.008482	-0.991167	0.944289	-0.302917	-0.128682	-0.301332	-0.952979	0.032081						
04957														-2.633929	0.735260	0.530164	-0.109948	0.049851	-0.992686	0.948609	-0.292907	-0.119776	-0.296736	-0.954841	-0.015085						
04958														-1.433149	0.010547	0.546285	-0.102075	0.079378	-0.991605	0.952209	-0.280680	-0.120488	-0.287888	-0.956513	-0.046935						
04959														-0.879108	-0.310810	0.411719	-0.102064	0.087404	-0.990931	0.955701	-0.267838	-0.122060	-0.276077	-0.959491	-0.056195						
04960														-0.351183	-0.597066	0.531023	-0.105357	0.074449	-0.991644	0.959597	-0.254022	-0.121023	-0.260910	-0.964329	-0.044678						
04961														-0.298014	-0.808730	0.455348	-0.105918	0.047579	-0.993236	0.962975	-0.244121	-0.114385	-0.247912	-0.968577	-0.019961						
04962														-2.030729	-0.260399	0.605260	-0.109579	0.008652	-0.993940	0.964544	-0.240617	-0.108433	-0.240097	-0.970582	0.018022						
04963														-3.411087	0.975060	0.512429	-0.124605	-0.046731	-0.991105	0.965021	-0.237932	-0.110107	-0.230670	-0.970157	0.074743						
04964														-4.239503	2.115290	0.364396	-0.147344	-0.116069	-0.982251	0.964752	-0.235790	-0.116857	-0.218042	-0.964848	0.146720						
04965														-4.064270	3.230884	0.354191	-0.167173	-0.194041	-0.966644	0.964009	-0.237758	-0.118990	-0.206739	-0.951745	0.226804						
04966														-5.149602	4.975104	0.488846	-0.177582	-0.275978	-0.944617	0.963915	-0.242221	-0.110442	-0.198326	-0.930143	0.309033						
04967														-7.139805	6.623130	0.508447	-0.193181	-0.364462	-0.910960	0.963730	-0.244726	-0.106460	-0.184135	-0.898486	0.398519						
04968														-6.742945	7.736788	0.667103	-0.218290	-0.453842	-0.863931	0.962032	-0.248704	-0.112428	-0.163839	-0.855672	0.490900						
04969														-5.392227	9.868745	1.169616	-0.241874	-0.542669	-0.804368	0.960629	-0.250722	-0.119711	-0.136710	-0.801654	0.581947						
04970														-6.618905	12.531254	1.122587	-0.261285	-0.635172	-0.726833	0.960336	-0.247033	-0.129346	-0.097394	-0.731800	0.674525						
04971														-9.727043	13.810855	0.114985	-0.278880	-0.729082	-0.625033	0.958934	-0.246446	-0.140391	-0.051680	-0.638517	0.767870						
04972														-10.239491	14.366995	0.015437	-0.284271	-0.805982	-0.519215	0.958551	-0.249807	-0.137031	-0.019259	-0.536647	0.843587						
04973														-9.685528	14.924945	0.801194	-0.278244	-0.861016	-0.425713	0.960502	-0.247606	-0.126991	0.003932	-0.444233	0.895903						
04974														-8.489531	15.093015	1.768353	-0.274055	-0.900383	-0.337941	0.961246	-0.245486	-0.125473	0.030014	-0.359231	0.932766						
04975														-6.616364	15.109162	1.927876	-0.273364	-0.929345	-0.248173	0.959814	-0.246506	-0.134137	0.063484	-0.274868	0.959384						
04976														-5.270724	15.018409	1.595609	-0.263402	-0.951968	-0.156132	0.959818	-0.242379	-0.141429	0.096792	-0.187111	0.977559						
04977														-5.297154	14.425278	1.521086	-0.239713	-0.968682	-0.064753	0.963269	-0.228998	-0.140259	0.121038	-0.095996	0.987995						
04978														-5.990462	13.916867	1.844429	-0.211842	-0.976981	0.025124	0.967820	-0.213289	-0.133538	0.135823	-0.003973	0.990725						
04979														-6.236747	13.595903	1.944745	-0.189274	-0.975548	0.111719	0.971112	-0.202812	-0.125729	0.145313	0.084694	0.985754						
04980														-6.762786	13.080925	2.064384	-0.175956	-0.965839	0.190246	0.972375	-0.200643	-0.119287	0.153383	0.164001	0.974462						
04981														-7.110983	11.932059	1.783264	-0.168770	-0.951845	0.255944	0.972212	-0.203499	-0.115724	0.162236	0.229301	0.959740						
04982														-6.451626	10.463710	1.421498	-0.159685	-0.939533	0.302951	0.972904	-0.201764	-0.112910	0.167207	0.276713	0.946294						
04983														-6.056171	9.417113	1.602598	-0.144299	-0.931907	0.332758	0.975776	-0.189887	-0.108648	0.164436	0.309020	0.936732						
04984														-6.390909	8.673915	2.019333	-0.128750	-0.926414	0.353809	0.979545	-0.174443	-0.100309	0.154647	0.333657	0.929923						
04985														-6.895361	8.134355	2.073123	-0.118300	-0.921437	0.370079	0.982843	-0.161768	-0.088599	0.141506	0.353248	0.924766						
04986														-7.412391	7.792096	2.073019	-0.111357	-0.918633	0.379095	0.985008	-0.152602	-0.080449	0.131754	0.364453	0.921854						
04987														-7.884808	7.315989	2.068337	-0.107320	-0.918661	0.380191	0.986113	-0.147101	-0.077085	0.126741	0.366638	0.921690						
04988														-8.555943	7.219310	2.357583	-0.110551	-0.920332	0.375191	0.986071	-0.148768	-0.074375	0.124266	0.361743	0.923959						
04989														-8.894786	7.709527	2.402282	-0.122074	-0.923075	0.364733	0.984943	-0.157989	-0.070187	0.122411	0.350674	0.928463						
04990														-9.523309	8.696485	1.937750	-0.138069	-0.928309	0.345224	0.982799	-0.171577	-0.068311	0.122647	0.329854	0.936031						
04991														-9.340898	9.757723	1.581848	-0.154180	-0.937914	0.310720	0.979927	-0.185379	-0.073329	0.126377	0.293177	0.947669						
04992														-8.597065	10.157413	1.139370	-0.167604	-0.951211	0.259048	0.977362	-0.194737	-0.082710	0.129120	0.239322	0.962317						
04993														-8.736346	11.111876	1.134145	-0.181512	-0.963867	0.194972	0.975588	-0.201421	-0.087510	0.123619	0.174328	0.976897						
04994														-8.703302	12.033129	0.775919	-0.199984	-0.971789	0.125032	0.973246	-0.211757	-0.089174	0.113135	0.103854	0.988137						
04995														-8.633723	12.346297	-0.283723	-0.219855	-0.974395	0.047103	0.970379	-0.223395	-0.091978	0.100145	0.025486	0.994646						
04996														-8.902906	13.385283	-0.756819	-0.240678	-0.969850	-0.038288	0.967135	-0.236298	-0.093878	0.082001	-0.059624	0.994847						
04997														-9.285965	14.804910	-0.593664	-0.265543	-0.955701	-0.126972	0.962355	-0.254837	-0.094504	0.057961	-0.147287	0.987394						
04998														-9.605108	15.708421	-0.543158	-0.298037	-0.929188	-0.218595	0.954024	-0.282323	-0.100658	0.031816	-0.238545	0.970610						
04999														-9.666578	16.277412	-0.489819	-0.335781	-0.887648	-0.315170	0.941935	-0.315338	-0.115412	0.003060	-0.335623	0.941992						
05000														-9.293726	16.641324	-0.231516	-0.373296	-0.829794	-0.414839	0.927228	-0.348160	-0.137956	-0.029955	-0.436149	0.899376						
